instructions.started,instructions.stopped,key_resp.keys,key_resp.rt,key_resp.duration,participant,session,"please enter F(female), M(male), O(other)",please enter your age,date,expName,psychopyVersion,OS,frameRate,fixation.started,fixation.stopped,trial.started,trial.stopped,mouse.x,mouse.y,mouse.leftButton,mouse.midButton,mouse.rightButton,mouse.time,trials.thisRepN,trials.thisTrialN,trials.thisN,trials.thisIndex,trials.ran,COMP1,COMP2,COMP3,COMP4,COMP5,COMP6,TEST_FACE,ILLUMINANT_TEST,ILLUMINANT_LINEUP
68.0962,69.4477,space,1.3107,,21156,001,F,19,2026-03-26_19h57.22.777,RUN_BETA,2026.1.0,Win32,59.52380952,,,,,,,,,,,,,,,,,,,,,,,,
,,,,,21156,001,F,19,2026-03-26_19h57.22.777,RUN_BETA,2026.1.0,Win32,59.52380952,69.484,69.9387,69.9414,75.9927,[0.0037037319607204863],[0.17407406700981987],[1],[0],[0],[6.0505999999940485],0,0,0,60,1,./IMAGES_ONLINE_EXPERIMENT/FEMALE_CFD-WF-015-027-F_ILL10_C4.png,./IMAGES_ONLINE_EXPERIMENT/FEMALE_CFD-WF-031-005-HO_ILL10_C6.png,./IMAGES_ONLINE_EXPERIMENT/FEMALE_CFD-WF-027-014-A_ILL10_C1.png,./IMAGES_ONLINE_EXPERIMENT/FEMALE_CFD-WF-014-009-HC_ILL10_C5.png,./IMAGES_ONLINE_EXPERIMENT/FEMALE_CFD-WF-006-006-HO_ILL10_C2.png,./IMAGES_ONLINE_EXPERIMENT/FEMALE_CFD-WF-019-032-HC_ILL10_C3.png,./IMAGES_ONLINE_EXPERIMENT/FEMALE_CFD-WF-031-009-HC_ILL7.png,,
,,,,,21156,001,F,19,2026-03-26_19h57.22.777,RUN_BETA,2026.1.0,Win32,59.52380952,75.9959,76.4884,76.4891,78.7555,[0.55],[0.19074073367648656],[1],[0],[0],[2.2666999999955237],0,1,1,23,1,./IMAGES_ONLINE_EXPERIMENT/MALES_CFD-WM-004-002-F_ILL9_C1.png,./IMAGES_ONLINE_EXPERIMENT/MALES_CFD-WM-010-007-HC_ILL9_C5.png,./IMAGES_ONLINE_EXPERIMENT/MALES_CFD-WM-033-014-A_ILL9_C6.png,./IMAGES_ONLINE_EXPERIMENT/MALES_CFD-WM-021-004-HO_ILL9_C3.png,./IMAGES_ONLINE_EXPERIMENT/MALES_CFD-WM-028-007-HO_ILL9_C4.png,./IMAGES_ONLINE_EXPERIMENT/MALES_CFD-WM-026-006-HO_ILL9_C2.png,./IMAGES_ONLINE_EXPERIMENT/MALES_CFD-WM-033-006-HC_ILL9.png,,
,,,,,21156,001,F,19,2026-03-26_19h57.22.777,RUN_BETA,2026.1.0,Win32,59.52380952,78.7562,79.2442,79.2452,92.6545,[-0.5888888888888889],[0.16666666666666666],[1],[0],[0],[13.409599999994043],0,2,2,94,1,./IMAGES_ONLINE_EXPERIMENT/MALES_CFD-WM-033-006-HC_ILL7_C5.png,./IMAGES_ONLINE_EXPERIMENT/MALES_CFD-WM-029-009-HC_ILL7_C3.png,./IMAGES_ONLINE_EXPERIMENT/MALES_CFD-WM-039-018-N_ILL7_C4.png,./IMAGES_ONLINE_EXPERIMENT/MALES_CFD-WM-033-025-N_ILL7_C2.png,./IMAGES_ONLINE_EXPERIMENT/MALES_CFD-WM-009-014-F_ILL7_C6.png,./IMAGES_ONLINE_EXPERIMENT/MALES_CFD-WM-026-001-N_ILL7_C1.png,./IMAGES_ONLINE_EXPERIMENT/MALES_CFD-WM-009-004-HO_ILL7.png,,
,,,,,21156,001,F,19,2026-03-26_19h57.22.777,RUN_BETA,2026.1.0,Win32,59.52380952,92.655,93.1545,93.156,100.7042,[0.42777777777777776],[-0.2657407972547743],[1],[0],[0],[7.548799999997016],0,3,3,103,1,./IMAGES_ONLINE_EXPERIMENT/MALES_CFD-WM-039-018-N_ILL10_C2.png,./IMAGES_ONLINE_EXPERIMENT/MALES_CFD-WM-019-013-A_ILL10_C6.png,./IMAGES_ONLINE_EXPERIMENT/MALES_CFD-WM-020-001-N_ILL10_C5.png,./IMAGES_ONLINE_EXPERIMENT/MALES_CFD-WM-026-019-A_ILL10_C1.png,./IMAGES_ONLINE_EXPERIMENT/MALES_CFD-WM-041-023-HC_ILL10_C4.png,./IMAGES_ONLINE_EXPERIMENT/MALES_CFD-WM-017-002-N_ILL10_C3.png,./IMAGES_ONLINE_EXPERIMENT/MALES_CFD-WM-019-006-HC_ILL9.png,,
,,,,,21156,001,F,19,2026-03-26_19h57.22.777,RUN_BETA,2026.1.0,Win32,59.52380952,100.7047,101.2045,101.2066,104.0887,[0.04351857503255208],[0.20833333333333334],[1],[0],[0],[2.8822999999970165],0,4,4,85,1,./IMAGES_ONLINE_EXPERIMENT/FEMALE_CFD-WF-007-001-N_ILL10_C2.png,./IMAGES_ONLINE_EXPERIMENT/FEMALE_CFD-WF-025-031-F_ILL10_C6.png,./IMAGES_ONLINE_EXPERIMENT/FEMALE_CFD-WF-014-004-HO_ILL10_C3.png,./IMAGES_ONLINE_EXPERIMENT/FEMALE_CFD-WF-019-032-HC_ILL10_C1.png,./IMAGES_ONLINE_EXPERIMENT/FEMALE_CFD-WF-013-015-A_ILL10_C5.png,./IMAGES_ONLINE_EXPERIMENT/FEMALE_CFD-WF-002-008-HC_ILL10_C4.png,./IMAGES_ONLINE_EXPERIMENT/FEMALE_CFD-WF-025-023-HC_ILL9.png,,
,,,,,21156,001,F,19,2026-03-26_19h57.22.777,RUN_BETA,2026.1.0,Win32,59.52380952,104.092,104.5874,104.5907,106.7731,[-0.4064814673529731],[0.2685185114542643],[1],[0],[0],[2.1826000000015],0,5,5,66,1,./IMAGES_ONLINE_EXPERIMENT/MALES_CFD-WM-024-003-HO_ILL10_C6.png,./IMAGES_ONLINE_EXPERIMENT/MALES_CFD-WM-017-002-N_ILL10_C5.png,./IMAGES_ONLINE_EXPERIMENT/MALES_CFD-WM-015-023-F_ILL10_C4.png,./IMAGES_ONLINE_EXPERIMENT/MALES_CFD-WM-040-007-A_ILL10_C3.png,./IMAGES_ONLINE_EXPERIMENT/MALES_CFD-WM-028-019-F_ILL10_C2.png,./IMAGES_ONLINE_EXPERIMENT/MALES_CFD-WM-017-003-HC_ILL10_C1.png,./IMAGES_ONLINE_EXPERIMENT/MALES_CFD-WM-024-015-N_ILL7.png,,
,,,,,21156,001,F,19,2026-03-26_19h57.22.777,RUN_BETA,2026.1.0,Win32,59.52380952,106.7751,107.2715,107.2747,110.1037,[-0.4666666666666667],[0.24074073367648655],[1],[0],[0],[2.8296000000015056],0,6,6,16,1,./IMAGES_ONLINE_EXPERIMENT/FEMALE_CFD-WF-001-027-F_ILL7_C6.png,./IMAGES_ONLINE_EXPERIMENT/FEMALE_CFD-WF-036-026-HO_ILL7_C2.png,./IMAGES_ONLINE_EXPERIMENT/FEMALE_CFD-WF-013-003-N_ILL7_C5.png,./IMAGES_ONLINE_EXPERIMENT/FEMALE_CFD-WF-019-032-HC_ILL7_C3.png,./IMAGES_ONLINE_EXPERIMENT/FEMALE_CFD-WF-005-016-HC_ILL7_C1.png,./IMAGES_ONLINE_EXPERIMENT/FEMALE_CFD-WF-020-027-F_ILL7_C4.png,./IMAGES_ONLINE_EXPERIMENT/FEMALE_CFD-WF-001-003-N_ILL7.png,,
,,,,,21156,001,F,19,2026-03-26_19h57.22.777,RUN_BETA,2026.1.0,Win32,59.52380952,110.1042,110.6042,110.6062,113.0041,[-0.45092591179741753],[-0.22777777777777777],[1],[0],[0],[2.3985999999940475],0,7,7,13,1,./IMAGES_ONLINE_EXPERIMENT/FEMALE_CFD-WF-006-003-HC_ILL10_C2.png,./IMAGES_ONLINE_EXPERIMENT/FEMALE_CFD-WF-008-003-HO_ILL10_C5.png,./IMAGES_ONLINE_EXPERIMENT/FEMALE_CFD-WF-027-021-HO_ILL10_C4.png,./IMAGES_ONLINE_EXPERIMENT/FEMALE_CFD-WF-014-012-A_ILL10_C6.png,./IMAGES_ONLINE_EXPERIMENT/FEMALE_CFD-WF-029-002-N_ILL10_C3.png,./IMAGES_ONLINE_EXPERIMENT/FEMALE_CFD-WF-037-024-F_ILL10_C1.png,./IMAGES_ONLINE_EXPERIMENT/FEMALE_CFD-WF-014-009-HC_ILL9.png,,
,,,,,21156,001,F,19,2026-03-26_19h57.22.777,RUN_BETA,2026.1.0,Win32,59.52380952,113.0048,113.504,113.5055,117.9204,[-0.44351849026150175],[0.2814814673529731],[1],[0],[0],[4.415400000005974],0,8,8,110,1,./IMAGES_ONLINE_EXPERIMENT/FEMALE_CFD-WF-024-003-N_ILL10_C2.png,./IMAGES_ONLINE_EXPERIMENT/FEMALE_CFD-WF-031-005-HO_ILL10_C3.png,./IMAGES_ONLINE_EXPERIMENT/FEMALE_CFD-WF-034-028-F_ILL10_C6.png,./IMAGES_ONLINE_EXPERIMENT/FEMALE_CFD-WF-014-004-HO_ILL10_C1.png,./IMAGES_ONLINE_EXPERIMENT/FEMALE_CFD-WF-013-003-N_ILL10_C4.png,./IMAGES_ONLINE_EXPERIMENT/FEMALE_CFD-WF-023-020-HO_ILL10_C5.png,./IMAGES_ONLINE_EXPERIMENT/FEMALE_CFD-WF-034-061-HC_ILL10.png,,
,,,,,21156,001,F,19,2026-03-26_19h57.22.777,RUN_BETA,2026.1.0,Win32,59.52380952,117.9209,118.4202,118.4213,123.1369,[-0.03981475830078125],[0.2212962892320421],[1],[0],[0],[4.716000000000008],0,9,9,101,1,./IMAGES_ONLINE_EXPERIMENT/FEMALE_CFD-WF-014-012-A_ILL9_C1.png,./IMAGES_ONLINE_EXPERIMENT/FEMALE_CFD-WF-029-018-F_ILL9_C5.png,./IMAGES_ONLINE_EXPERIMENT/FEMALE_CFD-WF-019-032-HC_ILL9_C3.png,./IMAGES_ONLINE_EXPERIMENT/FEMALE_CFD-WF-039-005-HO_ILL9_C6.png,./IMAGES_ONLINE_EXPERIMENT/FEMALE_CFD-WF-012-004-HC_ILL9_C4.png,./IMAGES_ONLINE_EXPERIMENT/FEMALE_CFD-WF-001-003-N_ILL9_C2.png,./IMAGES_ONLINE_EXPERIMENT/FEMALE_CFD-WF-039-032-A_ILL9.png,,
,,,,,21156,001,F,19,2026-03-26_19h57.22.777,RUN_BETA,2026.1.0,Win32,59.52380952,123.1375,123.6372,123.6386,126.2131,[-0.4305555555555556],[0.19074073367648656],[1],[0],[0],[2.575000000000017],0,10,10,84,1,./IMAGES_ONLINE_EXPERIMENT/FEMALE_CFD-WF-023-026-F_ILL10_C6.png,./IMAGES_ONLINE_EXPERIMENT/FEMALE_CFD-WF-011-016-F_ILL10_C1.png,./IMAGES_ONLINE_EXPERIMENT/FEMALE_CFD-WF-017-015-HO_ILL10_C4.png,./IMAGES_ONLINE_EXPERIMENT/FEMALE_CFD-WF-036-030-HC_ILL10_C5.png,./IMAGES_ONLINE_EXPERIMENT/FEMALE_CFD-WF-005-010-N_ILL10_C3.png,./IMAGES_ONLINE_EXPERIMENT/FEMALE_CFD-WF-003-014-A_ILL10_C2.png,./IMAGES_ONLINE_EXPERIMENT/FEMALE_CFD-WF-023-020-HO_ILL7.png,,
,,,,,21156,001,F,19,2026-03-26_19h57.22.777,RUN_BETA,2026.1.0,Win32,59.52380952,126.2136,126.704,126.7074,130.1704,[0.44166666666666665],[-0.2074074215359158],[1],[0],[0],[3.463399999998501],0,11,11,48,1,./IMAGES_ONLINE_EXPERIMENT/FEMALE_CFD-WF-026-002-N_ILL10_C5.png,./IMAGES_ONLINE_EXPERIMENT/FEMALE_CFD-WF-027-014-A_ILL10_C1.png,./IMAGES_ONLINE_EXPERIMENT/FEMALE_CFD-WF-003-007-HC_ILL10_C2.png,./IMAGES_ONLINE_EXPERIMENT/FEMALE_CFD-WF-008-005-HC_ILL10_C3.png,./IMAGES_ONLINE_EXPERIMENT/FEMALE_CFD-WF-036-026-HO_ILL10_C4.png,./IMAGES_ONLINE_EXPERIMENT/FEMALE_CFD-WF-037-016-A_ILL10_C6.png,./IMAGES_ONLINE_EXPERIMENT/FEMALE_CFD-WF-037-034-HC_ILL7.png,,
,,,,,21156,001,F,19,2026-03-26_19h57.22.777,RUN_BETA,2026.1.0,Win32,59.52380952,130.173,130.6708,130.6737,133.5217,[-0.48333333333333334],[0.1574074003431532],[1],[0],[0],[2.848000000000013],0,12,12,96,1,./IMAGES_ONLINE_EXPERIMENT/FEMALE_CFD-WF-011-006-HC_ILL10_C6.png,./IMAGES_ONLINE_EXPERIMENT/FEMALE_CFD-WF-016-017-HC_ILL10_C5.png,./IMAGES_ONLINE_EXPERIMENT/FEMALE_CFD-WF-010-014-A_ILL10_C3.png,./IMAGES_ONLINE_EXPERIMENT/FEMALE_CFD-WF-033-005-HO_ILL10_C1.png,./IMAGES_ONLINE_EXPERIMENT/FEMALE_CFD-WF-030-026-F_ILL10_C4.png,./IMAGES_ONLINE_EXPERIMENT/FEMALE_CFD-WF-016-015-N_ILL10_C2.png,./IMAGES_ONLINE_EXPERIMENT/FEMALE_CFD-WF-011-016-F_ILL7.png,,
,,,,,21156,001,F,19,2026-03-26_19h57.22.777,RUN_BETA,2026.1.0,Win32,59.52380952,133.5242,134.0206,134.0237,136.7374,[0.4435185750325521],[0.21574073367648655],[1],[0],[0],[2.713800000004454],0,13,13,32,1,./IMAGES_ONLINE_EXPERIMENT/MALES_CFD-WM-003-006-HC_ILL10_C3.png,./IMAGES_ONLINE_EXPERIMENT/MALES_CFD-WM-011-002-N_ILL10_C5.png,./IMAGES_ONLINE_EXPERIMENT/MALES_CFD-WM-017-003-HC_ILL10_C4.png,./IMAGES_ONLINE_EXPERIMENT/MALES_CFD-WM-032-004-HO_ILL10_C6.png,./IMAGES_ONLINE_EXPERIMENT/MALES_CFD-WM-022-012-F_ILL10_C1.png,./IMAGES_ONLINE_EXPERIMENT/MALES_CFD-WM-021-001-N_ILL10_C2.png,./IMAGES_ONLINE_EXPERIMENT/MALES_CFD-WM-032-001-N_ILL10.png,,
,,,,,21156,001,F,19,2026-03-26_19h57.22.777,RUN_BETA,2026.1.0,Win32,59.52380952,136.7401,137.2376,137.2404,141.3198,[0.07685190836588542],[0.1527777777777778],[1],[0],[0],[4.0800000000000125],0,14,14,57,1,./IMAGES_ONLINE_EXPERIMENT/MALES_CFD-WM-025-002-N_ILL10_C4.png,./IMAGES_ONLINE_EXPERIMENT/MALES_CFD-WM-006-013-HC_ILL10_C2.png,./IMAGES_ONLINE_EXPERIMENT/MALES_CFD-WM-013-001-N_ILL10_C6.png,./IMAGES_ONLINE_EXPERIMENT/MALES_CFD-WM-014-002-N_ILL10_C5.png,./IMAGES_ONLINE_EXPERIMENT/MALES_CFD-WM-020-003-HO_ILL10_C1.png,./IMAGES_ONLINE_EXPERIMENT/MALES_CFD-WM-006-002-N_ILL10_C3.png,./IMAGES_ONLINE_EXPERIMENT/MALES_CFD-WM-013-015-A_ILL10.png,,
,,,,,21156,001,F,19,2026-03-26_19h57.22.777,RUN_BETA,2026.1.0,Win32,59.52380952,141.3203,141.8202,141.8216,146.0794,[0.5342593722873263],[-0.2435185750325521],[1],[0],[0],[4.258400000005963],0,15,15,38,1,./IMAGES_ONLINE_EXPERIMENT/FEMALE_CFD-WF-013-006-HO_ILL10_C4.png,./IMAGES_ONLINE_EXPERIMENT/FEMALE_CFD-WF-011-002-N_ILL10_C1.png,./IMAGES_ONLINE_EXPERIMENT/FEMALE_CFD-WF-003-007-HC_ILL10_C5.png,./IMAGES_ONLINE_EXPERIMENT/FEMALE_CFD-WF-028-025-HC_ILL10_C6.png,./IMAGES_ONLINE_EXPERIMENT/FEMALE_CFD-WF-025-031-F_ILL10_C2.png,./IMAGES_ONLINE_EXPERIMENT/FEMALE_CFD-WF-022-019-HO_ILL10_C3.png,./IMAGES_ONLINE_EXPERIMENT/FEMALE_CFD-WF-028-026-A_ILL10.png,,
,,,,,21156,001,F,19,2026-03-26_19h57.22.777,RUN_BETA,2026.1.0,Win32,59.52380952,146.0797,146.5707,146.5736,149.6363,[-0.4388888888888889],[0.21574073367648655],[1],[0],[0],[3.063200000002979],0,16,16,81,1,./IMAGES_ONLINE_EXPERIMENT/MALES_CFD-WM-012-001-N_ILL10_C4.png,./IMAGES_ONLINE_EXPERIMENT/MALES_CFD-WM-012-005-HO_ILL10_C5.png,./IMAGES_ONLINE_EXPERIMENT/MALES_CFD-WM-028-007-HO_ILL10_C3.png,./IMAGES_ONLINE_EXPERIMENT/MALES_CFD-WM-010-020-F_ILL10_C6.png,./IMAGES_ONLINE_EXPERIMENT/MALES_CFD-WM-006-013-HC_ILL10_C2.png,./IMAGES_ONLINE_EXPERIMENT/MALES_CFD-WM-014-024-F_ILL10_C1.png,./IMAGES_ONLINE_EXPERIMENT/MALES_CFD-WM-010-016-A_ILL10.png,,
,,,,,21156,001,F,19,2026-03-26_19h57.22.777,RUN_BETA,2026.1.0,Win32,59.52380952,149.6372,150.1363,150.1377,152.5362,[-0.049074045817057294],[-0.23425928751627603],[1],[0],[0],[2.399100000001482],0,17,17,64,1,./IMAGES_ONLINE_EXPERIMENT/FEMALE_CFD-WF-018-017-N_ILL7_C5.png,./IMAGES_ONLINE_EXPERIMENT/FEMALE_CFD-WF-030-031-HC_ILL7_C2.png,./IMAGES_ONLINE_EXPERIMENT/FEMALE_CFD-WF-038-027-HC_ILL7_C1.png,./IMAGES_ONLINE_EXPERIMENT/FEMALE_CFD-WF-023-003-N_ILL7_C3.png,./IMAGES_ONLINE_EXPERIMENT/FEMALE_CFD-WF-035-033-A_ILL7_C6.png,./IMAGES_ONLINE_EXPERIMENT/FEMALE_CFD-WF-008-003-HO_ILL7_C4.png,./IMAGES_ONLINE_EXPERIMENT/FEMALE_CFD-WF-035-030-HC_ILL7.png,,
,,,,,21156,001,F,19,2026-03-26_19h57.22.777,RUN_BETA,2026.1.0,Win32,59.52380952,152.5371,153.036,153.037,155.2027,[0.4305555555555556],[0.1388888888888889],[1],[0],[0],[2.165999999999997],0,18,18,28,1,./IMAGES_ONLINE_EXPERIMENT/FEMALE_CFD-WF-011-016-F_ILL7_C4.png,./IMAGES_ONLINE_EXPERIMENT/FEMALE_CFD-WF-022-017-N_ILL7_C2.png,./IMAGES_ONLINE_EXPERIMENT/FEMALE_CFD-WF-006-006-HO_ILL7_C6.png,./IMAGES_ONLINE_EXPERIMENT/FEMALE_CFD-WF-025-031-F_ILL7_C5.png,./IMAGES_ONLINE_EXPERIMENT/FEMALE_CFD-WF-020-023-HO_ILL7_C1.png,./IMAGES_ONLINE_EXPERIMENT/FEMALE_CFD-WF-035-030-HC_ILL7_C3.png,./IMAGES_ONLINE_EXPERIMENT/FEMALE_CFD-WF-006-002-N_ILL7.png,,
,,,,,21156,001,F,19,2026-03-26_19h57.22.777,RUN_BETA,2026.1.0,Win32,59.52380952,155.2032,155.7029,155.7049,158.2691,[0.018518575032552085],[0.17222222222222222],[1],[0],[0],[2.5652000000029886],0,19,19,2,1,./IMAGES_ONLINE_EXPERIMENT/FEMALE_CFD-WF-009-006-HC_ILL10_C1.png,./IMAGES_ONLINE_EXPERIMENT/FEMALE_CFD-WF-017-003-N_ILL10_C5.png,./IMAGES_ONLINE_EXPERIMENT/FEMALE_CFD-WF-029-026-A_ILL10_C2.png,./IMAGES_ONLINE_EXPERIMENT/FEMALE_CFD-WF-024-031-F_ILL10_C3.png,./IMAGES_ONLINE_EXPERIMENT/FEMALE_CFD-WF-026-008-A_ILL10_C6.png,./IMAGES_ONLINE_EXPERIMENT/FEMALE_CFD-WF-002-033-A_ILL10_C4.png,./IMAGES_ONLINE_EXPERIMENT/FEMALE_CFD-WF-026-002-N_ILL10.png,,
,,,,,21156,001,F,19,2026-03-26_19h57.22.777,RUN_BETA,2026.1.0,Win32,59.52380952,158.2696,158.769,158.7699,160.0034,[0.018518575032552085],[0.17222222222222222],[1],[0],[0],[1.2331000000015138],0,20,20,97,1,./IMAGES_ONLINE_EXPERIMENT/FEMALE_CFD-WF-029-026-A_ILL10_C1.png,./IMAGES_ONLINE_EXPERIMENT/FEMALE_CFD-WF-030-002-N_ILL10_C5.png,./IMAGES_ONLINE_EXPERIMENT/FEMALE_CFD-WF-035-019-F_ILL10_C2.png,./IMAGES_ONLINE_EXPERIMENT/FEMALE_CFD-WF-014-009-HC_ILL10_C4.png,./IMAGES_ONLINE_EXPERIMENT/FEMALE_CFD-WF-012-017-F_ILL10_C6.png,./IMAGES_ONLINE_EXPERIMENT/FEMALE_CFD-WF-037-016-A_ILL10_C3.png,./IMAGES_ONLINE_EXPERIMENT/FEMALE_CFD-WF-012-004-HC_ILL9.png,,
,,,,,21156,001,F,19,2026-03-26_19h57.22.777,RUN_BETA,2026.1.0,Win32,59.52380952,160.0057,160.5027,160.5064,162.4694,[0.5768519083658854],[-0.14814817640516492],[1],[0],[0],[1.9635000000000105],0,21,21,58,1,./IMAGES_ONLINE_EXPERIMENT/MALES_CFD-WM-006-022-A_ILL7_C3.png,./IMAGES_ONLINE_EXPERIMENT/MALES_CFD-WM-016-002-HO_ILL7_C4.png,./IMAGES_ONLINE_EXPERIMENT/MALES_CFD-WM-029-014-A_ILL7_C2.png,./IMAGES_ONLINE_EXPERIMENT/MALES_CFD-WM-020-008-A_ILL7_C5.png,./IMAGES_ONLINE_EXPERIMENT/MALES_CFD-WM-035-036-HC_ILL7_C1.png,./IMAGES_ONLINE_EXPERIMENT/MALES_CFD-WM-036-047-F_ILL7_C6.png,./IMAGES_ONLINE_EXPERIMENT/MALES_CFD-WM-036-031-N_ILL7.png,,
,,,,,21156,001,F,19,2026-03-26_19h57.22.777,RUN_BETA,2026.1.0,Win32,59.52380952,162.4721,162.9698,162.973,167.2863,[-0.4537036895751953],[0.21574073367648655],[1],[0],[0],[4.313700000002967],0,22,22,33,1,./IMAGES_ONLINE_EXPERIMENT/MALES_CFD-WM-002-007-HO_ILL10_C6.png,./IMAGES_ONLINE_EXPERIMENT/MALES_CFD-WM-026-019-A_ILL10_C4.png,./IMAGES_ONLINE_EXPERIMENT/MALES_CFD-WM-020-005-HC_ILL10_C1.png,./IMAGES_ONLINE_EXPERIMENT/MALES_CFD-WM-039-018-N_ILL10_C2.png,./IMAGES_ONLINE_EXPERIMENT/MALES_CFD-WM-009-014-F_ILL10_C5.png,./IMAGES_ONLINE_EXPERIMENT/MALES_CFD-WM-019-013-A_ILL10_C3.png,./IMAGES_ONLINE_EXPERIMENT/MALES_CFD-WM-002-009-N_ILL10.png,,
,,,,,21156,001,F,19,2026-03-26_19h57.22.777,RUN_BETA,2026.1.0,Win32,59.52380952,167.2895,167.7868,167.7897,170.6189,[-0.4777777777777778],[0.18425924513075087],[1],[0],[0],[2.8296000000015056],0,23,23,30,1,./IMAGES_ONLINE_EXPERIMENT/MALES_CFD-WM-034-032-HC_ILL10_C1.png,./IMAGES_ONLINE_EXPERIMENT/MALES_CFD-WM-002-009-N_ILL10_C2.png,./IMAGES_ONLINE_EXPERIMENT/MALES_CFD-WM-025-022-F_ILL10_C4.png,./IMAGES_ONLINE_EXPERIMENT/MALES_CFD-WM-035-032-N_ILL10_C6.png,./IMAGES_ONLINE_EXPERIMENT/MALES_CFD-WM-014-008-HC_ILL10_C3.png,./IMAGES_ONLINE_EXPERIMENT/MALES_CFD-WM-014-002-N_ILL10_C5.png,./IMAGES_ONLINE_EXPERIMENT/MALES_CFD-WM-035-033-HO_ILL7.png,,
,,,,,21156,001,F,19,2026-03-26_19h57.22.777,RUN_BETA,2026.1.0,Win32,59.52380952,170.6195,171.119,171.1207,174.1232,[0.44907413058810763],[-0.2990741305881076],[1],[0],[0],[3.0032999999970116],0,24,24,114,1,./IMAGES_ONLINE_EXPERIMENT/MALES_CFD-WM-038-007-HC_ILL10_C3.png,./IMAGES_ONLINE_EXPERIMENT/MALES_CFD-WM-016-001-N_ILL10_C5.png,./IMAGES_ONLINE_EXPERIMENT/MALES_CFD-WM-011-002-N_ILL10_C2.png,./IMAGES_ONLINE_EXPERIMENT/MALES_CFD-WM-023-004-HO_ILL10_C1.png,./IMAGES_ONLINE_EXPERIMENT/MALES_CFD-WM-013-001-N_ILL10_C4.png,./IMAGES_ONLINE_EXPERIMENT/MALES_CFD-WM-015-005-HO_ILL10_C6.png,./IMAGES_ONLINE_EXPERIMENT/MALES_CFD-WM-015-002-N_ILL7.png,,
,,,,,21156,001,F,19,2026-03-26_19h57.22.777,RUN_BETA,2026.1.0,Win32,59.52380952,174.1236,174.6195,174.6219,176.8795,[0.5564815945095486],[-0.2731481764051649],[1],[0],[0],[2.2580999999940445],0,25,25,88,1,./IMAGES_ONLINE_EXPERIMENT/FEMALE_CFD-WF-027-021-HO_ILL7_C4.png,./IMAGES_ONLINE_EXPERIMENT/FEMALE_CFD-WF-039-005-HO_ILL7_C5.png,./IMAGES_ONLINE_EXPERIMENT/FEMALE_CFD-WF-023-020-HO_ILL7_C3.png,./IMAGES_ONLINE_EXPERIMENT/FEMALE_CFD-WF-005-013-HO_ILL7_C2.png,./IMAGES_ONLINE_EXPERIMENT/FEMALE_CFD-WF-016-021-A_ILL7_C1.png,./IMAGES_ONLINE_EXPERIMENT/FEMALE_CFD-WF-009-004-HO_ILL7_C6.png,./IMAGES_ONLINE_EXPERIMENT/FEMALE_CFD-WF-009-006-HC_ILL7.png,,
,,,,,21156,001,F,19,2026-03-26_19h57.22.777,RUN_BETA,2026.1.0,Win32,59.52380952,176.8799,177.3694,177.3724,179.6195,[0.3907407972547743],[-0.2833333333333333],[1],[0],[0],[2.2472999999970114],0,26,26,104,1,./IMAGES_ONLINE_EXPERIMENT/MALES_CFD-WM-035-032-N_ILL10_C4.png,./IMAGES_ONLINE_EXPERIMENT/MALES_CFD-WM-028-003-N_ILL10_C1.png,./IMAGES_ONLINE_EXPERIMENT/MALES_CFD-WM-009-002-N_ILL10_C3.png,./IMAGES_ONLINE_EXPERIMENT/MALES_CFD-WM-037-063-F_ILL10_C2.png,./IMAGES_ONLINE_EXPERIMENT/MALES_CFD-WM-037-033-HC_ILL10_C5.png,./IMAGES_ONLINE_EXPERIMENT/MALES_CFD-WM-014-024-F_ILL10_C6.png,./IMAGES_ONLINE_EXPERIMENT/MALES_CFD-WM-014-004-HO_ILL10.png,,
,,,,,21156,001,F,19,2026-03-26_19h57.22.777,RUN_BETA,2026.1.0,Win32,59.52380952,179.6218,180.1195,180.1225,184.285,[-0.5027777777777778],[-0.24074079725477432],[1],[0],[0],[4.163299999997037],0,27,27,43,1,./IMAGES_ONLINE_EXPERIMENT/MALES_CFD-WM-038-007-HC_ILL10_C5.png,./IMAGES_ONLINE_EXPERIMENT/MALES_CFD-WM-039-010-A_ILL10_C3.png,./IMAGES_ONLINE_EXPERIMENT/MALES_CFD-WM-031-045-A_ILL10_C1.png,./IMAGES_ONLINE_EXPERIMENT/MALES_CFD-WM-023-007-HC_ILL10_C6.png,./IMAGES_ONLINE_EXPERIMENT/MALES_CFD-WM-004-010-N_ILL10_C4.png,./IMAGES_ONLINE_EXPERIMENT/MALES_CFD-WM-003-008-A_ILL10_C2.png,./IMAGES_ONLINE_EXPERIMENT/MALES_CFD-WM-023-012-A_ILL9.png,,
,,,,,21156,001,F,19,2026-03-26_19h57.22.777,RUN_BETA,2026.1.0,Win32,59.52380952,184.2856,184.7853,184.7873,188.6528,[0.4398148430718316],[-0.28888888888888886],[1],[0],[0],[3.86619999999553],0,28,28,90,1,./IMAGES_ONLINE_EXPERIMENT/MALES_CFD-WM-012-005-HO_ILL10_C3.png,./IMAGES_ONLINE_EXPERIMENT/MALES_CFD-WM-011-011-A_ILL10_C5.png,./IMAGES_ONLINE_EXPERIMENT/MALES_CFD-WM-039-010-A_ILL10_C1.png,./IMAGES_ONLINE_EXPERIMENT/MALES_CFD-WM-020-003-HO_ILL10_C4.png,./IMAGES_ONLINE_EXPERIMENT/MALES_CFD-WM-019-009-HO_ILL10_C2.png,./IMAGES_ONLINE_EXPERIMENT/MALES_CFD-WM-004-005-HC_ILL10_C6.png,./IMAGES_ONLINE_EXPERIMENT/MALES_CFD-WM-004-011-A_ILL7.png,,
,,,,,21156,001,F,19,2026-03-26_19h57.22.777,RUN_BETA,2026.1.0,Win32,59.52380952,188.6556,189.1524,189.1569,192.3355,[0.5018519083658854],[-0.2759259541829427],[1],[0],[0],[3.1784999999999854],0,29,29,95,1,./IMAGES_ONLINE_EXPERIMENT/MALES_CFD-WM-031-003-N_ILL9_C1.png,./IMAGES_ONLINE_EXPERIMENT/MALES_CFD-WM-029-020-F_ILL9_C4.png,./IMAGES_ONLINE_EXPERIMENT/MALES_CFD-WM-025-019-HO_ILL9_C2.png,./IMAGES_ONLINE_EXPERIMENT/MALES_CFD-WM-038-018-F_ILL9_C6.png,./IMAGES_ONLINE_EXPERIMENT/MALES_CFD-WM-020-008-A_ILL9_C5.png,./IMAGES_ONLINE_EXPERIMENT/MALES_CFD-WM-010-016-A_ILL9_C3.png,./IMAGES_ONLINE_EXPERIMENT/MALES_CFD-WM-038-007-HC_ILL9.png,,
,,,,,21156,001,F,19,2026-03-26_19h57.22.777,RUN_BETA,2026.1.0,Win32,59.52380952,192.3385,192.8353,192.8388,196.5118,[0.43518524169921874],[-0.1361111111111111],[1],[0],[0],[3.674100000001488],0,30,30,74,1,./IMAGES_ONLINE_EXPERIMENT/FEMALE_CFD-WF-020-002-N_ILL10_C4.png,./IMAGES_ONLINE_EXPERIMENT/FEMALE_CFD-WF-003-004-HO_ILL10_C6.png,./IMAGES_ONLINE_EXPERIMENT/FEMALE_CFD-WF-022-019-HO_ILL10_C2.png,./IMAGES_ONLINE_EXPERIMENT/FEMALE_CFD-WF-012-007-HO_ILL10_C3.png,./IMAGES_ONLINE_EXPERIMENT/FEMALE_CFD-WF-039-025-N_ILL10_C5.png,./IMAGES_ONLINE_EXPERIMENT/FEMALE_CFD-WF-038-021-N_ILL10_C1.png,./IMAGES_ONLINE_EXPERIMENT/FEMALE_CFD-WF-003-014-A_ILL10.png,,
,,,,,21156,001,F,19,2026-03-26_19h57.22.777,RUN_BETA,2026.1.0,Win32,59.52380952,196.5123,197.0025,197.0056,199.4041,[-0.06296293470594617],[-0.3268519083658854],[1],[0],[0],[2.3988999999984912],0,31,31,39,1,./IMAGES_ONLINE_EXPERIMENT/FEMALE_CFD-WF-021-006-HC_ILL10_C3.png,./IMAGES_ONLINE_EXPERIMENT/FEMALE_CFD-WF-016-003-HO_ILL10_C2.png,./IMAGES_ONLINE_EXPERIMENT/FEMALE_CFD-WF-010-008-HC_ILL10_C1.png,./IMAGES_ONLINE_EXPERIMENT/FEMALE_CFD-WF-022-023-A_ILL10_C5.png,./IMAGES_ONLINE_EXPERIMENT/FEMALE_CFD-WF-015-027-F_ILL10_C6.png,./IMAGES_ONLINE_EXPERIMENT/FEMALE_CFD-WF-033-031-A_ILL10_C4.png,./IMAGES_ONLINE_EXPERIMENT/FEMALE_CFD-WF-015-014-A_ILL10.png,,
,,,,,21156,001,F,19,2026-03-26_19h57.22.777,RUN_BETA,2026.1.0,Win32,59.52380952,199.4056,199.9018,199.9053,202.3691,[0.4148148430718316],[-0.3009259541829427],[1],[0],[0],[2.4642000000029896],0,32,32,31,1,./IMAGES_ONLINE_EXPERIMENT/MALES_CFD-WM-034-035-HO_ILL10_C3.png,./IMAGES_ONLINE_EXPERIMENT/MALES_CFD-WM-016-005-HC_ILL10_C5.png,./IMAGES_ONLINE_EXPERIMENT/MALES_CFD-WM-040-023-HO_ILL10_C1.png,./IMAGES_ONLINE_EXPERIMENT/MALES_CFD-WM-029-009-HC_ILL10_C2.png,./IMAGES_ONLINE_EXPERIMENT/MALES_CFD-WM-004-005-HC_ILL10_C6.png,./IMAGES_ONLINE_EXPERIMENT/MALES_CFD-WM-021-009-A_ILL10_C4.png,./IMAGES_ONLINE_EXPERIMENT/MALES_CFD-WM-004-011-A_ILL9.png,,
,,,,,21156,001,F,19,2026-03-26_19h57.22.777,RUN_BETA,2026.1.0,Win32,59.52380952,202.3713,202.8687,202.8718,205.1446,[0.4796296861436632],[-0.1898148430718316],[1],[0],[0],[2.273600000001494],0,33,33,112,1,./IMAGES_ONLINE_EXPERIMENT/FEMALE_CFD-WF-017-012-F_ILL7_C6.png,./IMAGES_ONLINE_EXPERIMENT/FEMALE_CFD-WF-029-023-HC_ILL7_C1.png,./IMAGES_ONLINE_EXPERIMENT/FEMALE_CFD-WF-018-017-N_ILL7_C5.png,./IMAGES_ONLINE_EXPERIMENT/FEMALE_CFD-WF-035-024-N_ILL7_C2.png,./IMAGES_ONLINE_EXPERIMENT/FEMALE_CFD-WF-005-010-N_ILL7_C4.png,./IMAGES_ONLINE_EXPERIMENT/FEMALE_CFD-WF-034-033-HO_ILL7_C3.png,./IMAGES_ONLINE_EXPERIMENT/FEMALE_CFD-WF-017-023-A_ILL7.png,,
,,,,,21156,001,F,19,2026-03-26_19h57.22.777,RUN_BETA,2026.1.0,Win32,59.52380952,205.145,205.6345,205.6369,207.5523,[0.10462968614366319],[-0.29629635281032984],[1],[0],[0],[1.915399999998499],0,34,34,44,1,./IMAGES_ONLINE_EXPERIMENT/MALES_CFD-WM-029-020-F_ILL10_C1.png,./IMAGES_ONLINE_EXPERIMENT/MALES_CFD-WM-033-006-HC_ILL10_C4.png,./IMAGES_ONLINE_EXPERIMENT/MALES_CFD-WM-039-018-N_ILL10_C3.png,./IMAGES_ONLINE_EXPERIMENT/MALES_CFD-WM-028-003-N_ILL10_C2.png,./IMAGES_ONLINE_EXPERIMENT/MALES_CFD-WM-040-025-HC_ILL10_C6.png,./IMAGES_ONLINE_EXPERIMENT/MALES_CFD-WM-026-004-HC_ILL10_C5.png,./IMAGES_ONLINE_EXPERIMENT/MALES_CFD-WM-040-023-HO_ILL10.png,,
,,,,,21156,001,F,19,2026-03-26_19h57.22.777,RUN_BETA,2026.1.0,Win32,59.52380952,207.5553,208.052,208.0551,211.1018,[-0.36851849026150174],[0.22870368957519532],[1],[0],[0],[3.046999999999997],0,35,35,42,1,./IMAGES_ONLINE_EXPERIMENT/MALES_CFD-WM-025-022-F_ILL10_C6.png,./IMAGES_ONLINE_EXPERIMENT/MALES_CFD-WM-021-001-N_ILL10_C1.png,./IMAGES_ONLINE_EXPERIMENT/MALES_CFD-WM-032-021-F_ILL10_C5.png,./IMAGES_ONLINE_EXPERIMENT/MALES_CFD-WM-004-005-HC_ILL10_C4.png,./IMAGES_ONLINE_EXPERIMENT/MALES_CFD-WM-026-006-HO_ILL10_C2.png,./IMAGES_ONLINE_EXPERIMENT/MALES_CFD-WM-028-029-A_ILL10_C3.png,./IMAGES_ONLINE_EXPERIMENT/MALES_CFD-WM-025-002-N_ILL7.png,,
,,,,,21156,001,F,19,2026-03-26_19h57.22.777,RUN_BETA,2026.1.0,Win32,59.52380952,211.1044,211.602,211.6062,214.2345,[0.4296296861436632],[0.13055555555555556],[1],[0],[0],[2.628699999995547],0,36,36,71,1,./IMAGES_ONLINE_EXPERIMENT/MALES_CFD-WM-037-025-N_ILL9_C5.png,./IMAGES_ONLINE_EXPERIMENT/MALES_CFD-WM-026-004-HC_ILL9_C1.png,./IMAGES_ONLINE_EXPERIMENT/MALES_CFD-WM-033-053-F_ILL9_C4.png,./IMAGES_ONLINE_EXPERIMENT/MALES_CFD-WM-006-039-F_ILL9_C6.png,./IMAGES_ONLINE_EXPERIMENT/MALES_CFD-WM-021-009-A_ILL9_C2.png,./IMAGES_ONLINE_EXPERIMENT/MALES_CFD-WM-031-045-A_ILL9_C3.png,./IMAGES_ONLINE_EXPERIMENT/MALES_CFD-WM-006-022-A_ILL9.png,,
,,,,,21156,001,F,19,2026-03-26_19h57.22.777,RUN_BETA,2026.1.0,Win32,59.52380952,214.2352,214.7346,214.7364,217.1519,[0.025],[-0.2120370652940538],[1],[0],[0],[2.4158999999985156],0,37,37,37,1,./IMAGES_ONLINE_EXPERIMENT/FEMALE_CFD-WF-016-024-F_ILL10_C3.png,./IMAGES_ONLINE_EXPERIMENT/FEMALE_CFD-WF-037-016-A_ILL10_C1.png,./IMAGES_ONLINE_EXPERIMENT/FEMALE_CFD-WF-034-061-HC_ILL10_C4.png,./IMAGES_ONLINE_EXPERIMENT/FEMALE_CFD-WF-017-016-HC_ILL10_C5.png,./IMAGES_ONLINE_EXPERIMENT/FEMALE_CFD-WF-029-018-F_ILL10_C2.png,./IMAGES_ONLINE_EXPERIMENT/FEMALE_CFD-WF-026-008-A_ILL10_C6.png,./IMAGES_ONLINE_EXPERIMENT/FEMALE_CFD-WF-026-018-HC_ILL9.png,,
,,,,,21156,001,F,19,2026-03-26_19h57.22.777,RUN_BETA,2026.1.0,Win32,59.52380952,217.155,217.6516,217.656,219.6538,[0.0018519083658854166],[-0.29259262084960935],[1],[0],[0],[1.9972000000029766],0,38,38,10,1,./IMAGES_ONLINE_EXPERIMENT/MALES_CFD-WM-026-001-N_ILL7_C3.png,./IMAGES_ONLINE_EXPERIMENT/MALES_CFD-WM-018-005-HC_ILL7_C5.png,./IMAGES_ONLINE_EXPERIMENT/MALES_CFD-WM-039-004-HC_ILL7_C1.png,./IMAGES_ONLINE_EXPERIMENT/MALES_CFD-WM-032-004-HO_ILL7_C2.png,./IMAGES_ONLINE_EXPERIMENT/MALES_CFD-WM-013-008-HC_ILL7_C4.png,./IMAGES_ONLINE_EXPERIMENT/MALES_CFD-WM-009-014-F_ILL7_C6.png,./IMAGES_ONLINE_EXPERIMENT/MALES_CFD-WM-009-002-N_ILL7.png,,
,,,,,21156,001,F,19,2026-03-26_19h57.22.777,RUN_BETA,2026.1.0,Win32,59.52380952,219.6552,220.1516,220.1557,222.4278,[0.4537037319607205],[0.16666666666666666],[1],[0],[0],[2.274000000000001],0,39,39,115,1,./IMAGES_ONLINE_EXPERIMENT/MALES_CFD-WM-024-007-HC_ILL10_C4.png,./IMAGES_ONLINE_EXPERIMENT/MALES_CFD-WM-031-004-HO_ILL10_C1.png,./IMAGES_ONLINE_EXPERIMENT/MALES_CFD-WM-032-004-HO_ILL10_C2.png,./IMAGES_ONLINE_EXPERIMENT/MALES_CFD-WM-017-011-A_ILL10_C6.png,./IMAGES_ONLINE_EXPERIMENT/MALES_CFD-WM-021-006-HC_ILL10_C5.png,./IMAGES_ONLINE_EXPERIMENT/MALES_CFD-WM-009-014-F_ILL10_C3.png,./IMAGES_ONLINE_EXPERIMENT/MALES_CFD-WM-017-002-N_ILL9.png,,
,,,,,21156,001,F,19,2026-03-26_19h57.22.777,RUN_BETA,2026.1.0,Win32,59.52380952,222.4284,222.9182,222.9213,226.5015,[-0.39166666666666666],[-0.2870370652940538],[1],[0],[0],[3.579999999999984],0,40,40,78,1,./IMAGES_ONLINE_EXPERIMENT/MALES_CFD-WM-024-019-F_ILL10_C1.png,./IMAGES_ONLINE_EXPERIMENT/MALES_CFD-WM-028-005-HC_ILL10_C4.png,./IMAGES_ONLINE_EXPERIMENT/MALES_CFD-WM-039-018-N_ILL10_C5.png,./IMAGES_ONLINE_EXPERIMENT/MALES_CFD-WM-025-022-F_ILL10_C6.png,./IMAGES_ONLINE_EXPERIMENT/MALES_CFD-WM-003-003-HO_ILL10_C3.png,./IMAGES_ONLINE_EXPERIMENT/MALES_CFD-WM-001-011-HO_ILL10_C2.png,./IMAGES_ONLINE_EXPERIMENT/MALES_CFD-WM-025-008-A_ILL7.png,,
,,,,,21156,001,F,19,2026-03-26_19h57.22.777,RUN_BETA,2026.1.0,Win32,59.52380952,226.5044,227.0016,227.0042,229.2184,[-0.38703702290852865],[-0.2898148430718316],[1],[0],[0],[2.214200000002961],0,41,41,80,1,./IMAGES_ONLINE_EXPERIMENT/MALES_CFD-WM-003-002-N_ILL10_C1.png,./IMAGES_ONLINE_EXPERIMENT/MALES_CFD-WM-012-001-N_ILL10_C2.png,./IMAGES_ONLINE_EXPERIMENT/MALES_CFD-WM-036-034-HO_ILL10_C5.png,./IMAGES_ONLINE_EXPERIMENT/MALES_CFD-WM-032-001-N_ILL10_C6.png,./IMAGES_ONLINE_EXPERIMENT/MALES_CFD-WM-009-006-HC_ILL10_C3.png,./IMAGES_ONLINE_EXPERIMENT/MALES_CFD-WM-031-038-HC_ILL10_C4.png,./IMAGES_ONLINE_EXPERIMENT/MALES_CFD-WM-032-008-HC_ILL10.png,,
,,,,,21156,001,F,19,2026-03-26_19h57.22.777,RUN_BETA,2026.1.0,Win32,59.52380952,229.221,229.7181,229.7207,232.3605,[-0.04722222222222222],[-0.175],[1],[0],[0],[2.6403999999984933],0,42,42,54,1,./IMAGES_ONLINE_EXPERIMENT/MALES_CFD-WM-038-011-A_ILL10_C4.png,./IMAGES_ONLINE_EXPERIMENT/MALES_CFD-WM-031-003-N_ILL10_C6.png,./IMAGES_ONLINE_EXPERIMENT/MALES_CFD-WM-009-014-F_ILL10_C5.png,./IMAGES_ONLINE_EXPERIMENT/MALES_CFD-WM-037-034-HO_ILL10_C3.png,./IMAGES_ONLINE_EXPERIMENT/MALES_CFD-WM-040-025-HC_ILL10_C1.png,./IMAGES_ONLINE_EXPERIMENT/MALES_CFD-WM-020-012-F_ILL10_C2.png,./IMAGES_ONLINE_EXPERIMENT/MALES_CFD-WM-031-004-HO_ILL7.png,,
,,,,,21156,001,F,19,2026-03-26_19h57.22.777,RUN_BETA,2026.1.0,Win32,59.52380952,232.3609,232.851,232.8538,236.4944,[-0.5287036895751953],[-0.21388888888888888],[1],[0],[0],[3.6414999999999793],0,43,43,27,1,./IMAGES_ONLINE_EXPERIMENT/FEMALE_CFD-WF-014-009-HC_ILL10_C5.png,./IMAGES_ONLINE_EXPERIMENT/FEMALE_CFD-WF-011-003-HO_ILL10_C3.png,./IMAGES_ONLINE_EXPERIMENT/FEMALE_CFD-WF-023-026-F_ILL10_C1.png,./IMAGES_ONLINE_EXPERIMENT/FEMALE_CFD-WF-003-007-HC_ILL10_C6.png,./IMAGES_ONLINE_EXPERIMENT/FEMALE_CFD-WF-021-016-HO_ILL10_C4.png,./IMAGES_ONLINE_EXPERIMENT/FEMALE_CFD-WF-012-012-A_ILL10_C2.png,./IMAGES_ONLINE_EXPERIMENT/FEMALE_CFD-WF-003-004-HO_ILL10.png,,
,,,,,21156,001,F,19,2026-03-26_19h57.22.777,RUN_BETA,2026.1.0,Win32,59.52380952,236.4947,236.9842,236.9874,240.2434,[0.39537039862738715],[-0.3],[1],[0],[0],[3.2566000000014697],0,44,44,65,1,./IMAGES_ONLINE_EXPERIMENT/FEMALE_CFD-WF-037-016-A_ILL9_C2.png,./IMAGES_ONLINE_EXPERIMENT/FEMALE_CFD-WF-011-006-HC_ILL9_C1.png,./IMAGES_ONLINE_EXPERIMENT/FEMALE_CFD-WF-018-018-HO_ILL9_C6.png,./IMAGES_ONLINE_EXPERIMENT/FEMALE_CFD-WF-025-006-HO_ILL9_C5.png,./IMAGES_ONLINE_EXPERIMENT/FEMALE_CFD-WF-015-006-N_ILL9_C4.png,./IMAGES_ONLINE_EXPERIMENT/FEMALE_CFD-WF-003-014-A_ILL9_C3.png,./IMAGES_ONLINE_EXPERIMENT/FEMALE_CFD-WF-018-019-HC_ILL9.png,,
,,,,,21156,001,F,19,2026-03-26_19h57.22.777,RUN_BETA,2026.1.0,Win32,59.52380952,240.2437,240.7341,240.737,246.6845,[0.46296301947699653],[-0.28425928751627605],[1],[0],[0],[5.947700000002953],0,45,45,45,1,./IMAGES_ONLINE_EXPERIMENT/MALES_CFD-WM-013-001-N_ILL10_C5.png,./IMAGES_ONLINE_EXPERIMENT/MALES_CFD-WM-006-010-HO_ILL10_C1.png,./IMAGES_ONLINE_EXPERIMENT/MALES_CFD-WM-034-035-HO_ILL10_C4.png,./IMAGES_ONLINE_EXPERIMENT/MALES_CFD-WM-020-012-F_ILL10_C6.png,./IMAGES_ONLINE_EXPERIMENT/MALES_CFD-WM-036-018-A_ILL10_C2.png,./IMAGES_ONLINE_EXPERIMENT/MALES_CFD-WM-034-027-F_ILL10_C3.png,./IMAGES_ONLINE_EXPERIMENT/MALES_CFD-WM-020-001-N_ILL10.png,,
,,,,,21156,001,F,19,2026-03-26_19h57.22.777,RUN_BETA,2026.1.0,Win32,59.52380952,246.6874,247.1842,247.1875,249.9436,[0.5120370652940538],[0.185185178120931],[1],[0],[0],[2.7567000000029793],0,46,46,22,1,./IMAGES_ONLINE_EXPERIMENT/MALES_CFD-WM-010-007-HC_ILL7_C1.png,./IMAGES_ONLINE_EXPERIMENT/MALES_CFD-WM-040-033-F_ILL7_C5.png,./IMAGES_ONLINE_EXPERIMENT/MALES_CFD-WM-003-006-HC_ILL7_C2.png,./IMAGES_ONLINE_EXPERIMENT/MALES_CFD-WM-039-018-N_ILL7_C6.png,./IMAGES_ONLINE_EXPERIMENT/MALES_CFD-WM-017-011-A_ILL7_C4.png,./IMAGES_ONLINE_EXPERIMENT/MALES_CFD-WM-023-015-F_ILL7_C3.png,./IMAGES_ONLINE_EXPERIMENT/MALES_CFD-WM-039-010-A_ILL7.png,,
,,,,,21156,001,F,19,2026-03-26_19h57.22.777,RUN_BETA,2026.1.0,Win32,59.52380952,249.944,250.4392,250.4401,252.2831,[-0.09166666666666666],[-0.2833333333333333],[1],[0],[0],[1.8433999999984962],0,47,47,76,1,./IMAGES_ONLINE_EXPERIMENT/FEMALE_CFD-WF-030-003-HO_ILL7_C1.png,./IMAGES_ONLINE_EXPERIMENT/FEMALE_CFD-WF-038-027-HC_ILL7_C2.png,./IMAGES_ONLINE_EXPERIMENT/FEMALE_CFD-WF-023-020-HO_ILL7_C4.png,./IMAGES_ONLINE_EXPERIMENT/FEMALE_CFD-WF-001-003-N_ILL7_C5.png,./IMAGES_ONLINE_EXPERIMENT/FEMALE_CFD-WF-021-002-N_ILL7_C6.png,./IMAGES_ONLINE_EXPERIMENT/FEMALE_CFD-WF-003-004-HO_ILL7_C3.png,./IMAGES_ONLINE_EXPERIMENT/FEMALE_CFD-WF-021-018-A_ILL7.png,,
,,,,,21156,001,F,19,2026-03-26_19h57.22.777,RUN_BETA,2026.1.0,Win32,59.52380952,252.2836,252.7835,252.7851,260.4183,[-0.4259259117974175],[-0.1870370652940538],[1],[0],[0],[7.6330999999940445],0,48,48,24,1,./IMAGES_ONLINE_EXPERIMENT/FEMALE_CFD-WF-037-029-N_ILL10_C4.png,./IMAGES_ONLINE_EXPERIMENT/FEMALE_CFD-WF-035-027-HO_ILL10_C2.png,./IMAGES_ONLINE_EXPERIMENT/FEMALE_CFD-WF-034-028-F_ILL10_C3.png,./IMAGES_ONLINE_EXPERIMENT/FEMALE_CFD-WF-001-016-A_ILL10_C6.png,./IMAGES_ONLINE_EXPERIMENT/FEMALE_CFD-WF-037-016-A_ILL10_C5.png,./IMAGES_ONLINE_EXPERIMENT/FEMALE_CFD-WF-016-015-N_ILL10_C1.png,./IMAGES_ONLINE_EXPERIMENT/FEMALE_CFD-WF-001-009-HO_ILL7.png,,
,,,,,21156,001,F,19,2026-03-26_19h57.22.777,RUN_BETA,2026.1.0,Win32,59.52380952,260.4205,260.9168,260.9198,263.7761,[-0.5574074003431532],[-0.13333333333333333],[1],[0],[0],[2.8572000000029902],0,49,49,34,1,./IMAGES_ONLINE_EXPERIMENT/MALES_CFD-WM-021-004-HO_ILL7_C6.png,./IMAGES_ONLINE_EXPERIMENT/MALES_CFD-WM-040-022-N_ILL7_C1.png,./IMAGES_ONLINE_EXPERIMENT/MALES_CFD-WM-003-002-N_ILL7_C5.png,./IMAGES_ONLINE_EXPERIMENT/MALES_CFD-WM-018-007-A_ILL7_C2.png,./IMAGES_ONLINE_EXPERIMENT/MALES_CFD-WM-014-024-F_ILL7_C3.png,./IMAGES_ONLINE_EXPERIMENT/MALES_CFD-WM-035-018-A_ILL7_C4.png,./IMAGES_ONLINE_EXPERIMENT/MALES_CFD-WM-021-001-N_ILL7.png,,
,,,,,21156,001,F,19,2026-03-26_19h57.22.777,RUN_BETA,2026.1.0,Win32,59.52380952,263.7765,264.2673,264.2701,268.3164,[-0.010185156928168402],[0.1962962892320421],[1],[0],[0],[4.046400000005974],0,50,50,56,1,./IMAGES_ONLINE_EXPERIMENT/MALES_CFD-WM-031-003-N_ILL10_C6.png,./IMAGES_ONLINE_EXPERIMENT/MALES_CFD-WM-024-015-N_ILL10_C2.png,./IMAGES_ONLINE_EXPERIMENT/MALES_CFD-WM-025-019-HO_ILL10_C4.png,./IMAGES_ONLINE_EXPERIMENT/MALES_CFD-WM-024-019-F_ILL10_C1.png,./IMAGES_ONLINE_EXPERIMENT/MALES_CFD-WM-028-005-HC_ILL10_C5.png,./IMAGES_ONLINE_EXPERIMENT/MALES_CFD-WM-009-014-F_ILL10_C3.png,./IMAGES_ONLINE_EXPERIMENT/MALES_CFD-WM-031-032-F_ILL10.png,,
,,,,,21156,001,F,19,2026-03-26_19h57.22.777,RUN_BETA,2026.1.0,Win32,59.52380952,268.3201,268.8166,268.8195,271.5928,[-0.47037035624186196],[0.16851851145426433],[1],[0],[0],[2.7742000000029634],0,51,51,17,1,./IMAGES_ONLINE_EXPERIMENT/FEMALE_CFD-WF-016-017-HC_ILL9_C5.png,./IMAGES_ONLINE_EXPERIMENT/FEMALE_CFD-WF-019-032-HC_ILL9_C6.png,./IMAGES_ONLINE_EXPERIMENT/FEMALE_CFD-WF-021-002-N_ILL9_C2.png,./IMAGES_ONLINE_EXPERIMENT/FEMALE_CFD-WF-036-023-N_ILL9_C4.png,./IMAGES_ONLINE_EXPERIMENT/FEMALE_CFD-WF-039-044-F_ILL9_C1.png,./IMAGES_ONLINE_EXPERIMENT/FEMALE_CFD-WF-018-017-N_ILL9_C3.png,./IMAGES_ONLINE_EXPERIMENT/FEMALE_CFD-WF-019-024-F_ILL9.png,,
,,,,,21156,001,F,19,2026-03-26_19h57.22.777,RUN_BETA,2026.1.0,Win32,59.52380952,271.5933,272.0833,272.0864,274.8492,[0.45648150973849827],[-0.22407413058810763],[1],[0],[0],[2.763500000000022],0,52,52,18,1,./IMAGES_ONLINE_EXPERIMENT/MALES_CFD-WM-022-003-HC_ILL10_C5.png,./IMAGES_ONLINE_EXPERIMENT/MALES_CFD-WM-014-004-HO_ILL10_C4.png,./IMAGES_ONLINE_EXPERIMENT/MALES_CFD-WM-038-005-HO_ILL10_C3.png,./IMAGES_ONLINE_EXPERIMENT/MALES_CFD-WM-037-033-HC_ILL10_C2.png,./IMAGES_ONLINE_EXPERIMENT/MALES_CFD-WM-019-009-HO_ILL10_C1.png,./IMAGES_ONLINE_EXPERIMENT/MALES_CFD-WM-021-006-HC_ILL10_C6.png,./IMAGES_ONLINE_EXPERIMENT/MALES_CFD-WM-021-009-A_ILL7.png,,
,,,,,21156,001,F,19,2026-03-26_19h57.22.777,RUN_BETA,2026.1.0,Win32,59.52380952,274.8498,275.3496,275.3512,278.2494,[-0.39629626803927953],[-0.19907408820258246],[1],[0],[0],[2.898899999998548],0,53,53,11,1,./IMAGES_ONLINE_EXPERIMENT/MALES_CFD-WM-031-045-A_ILL9_C4.png,./IMAGES_ONLINE_EXPERIMENT/MALES_CFD-WM-016-005-HC_ILL9_C3.png,./IMAGES_ONLINE_EXPERIMENT/MALES_CFD-WM-026-006-HO_ILL9_C6.png,./IMAGES_ONLINE_EXPERIMENT/MALES_CFD-WM-040-022-N_ILL9_C5.png,./IMAGES_ONLINE_EXPERIMENT/MALES_CFD-WM-041-009-A_ILL9_C1.png,./IMAGES_ONLINE_EXPERIMENT/MALES_CFD-WM-031-038-HC_ILL9_C2.png,./IMAGES_ONLINE_EXPERIMENT/MALES_CFD-WM-026-019-A_ILL9.png,,
,,,,,21156,001,F,19,2026-03-26_19h57.22.777,RUN_BETA,2026.1.0,Win32,59.52380952,278.25,278.7494,278.7511,281.233,[-0.025],[-0.2435185750325521],[1],[0],[0],[2.482499999999959],0,54,54,89,1,./IMAGES_ONLINE_EXPERIMENT/FEMALE_CFD-WF-007-003-HO_ILL9_C4.png,./IMAGES_ONLINE_EXPERIMENT/FEMALE_CFD-WF-023-020-HO_ILL9_C2.png,./IMAGES_ONLINE_EXPERIMENT/FEMALE_CFD-WF-029-018-F_ILL9_C5.png,./IMAGES_ONLINE_EXPERIMENT/FEMALE_CFD-WF-015-014-A_ILL9_C6.png,./IMAGES_ONLINE_EXPERIMENT/FEMALE_CFD-WF-011-006-HC_ILL9_C1.png,./IMAGES_ONLINE_EXPERIMENT/FEMALE_CFD-WF-001-009-HO_ILL9_C3.png,./IMAGES_ONLINE_EXPERIMENT/FEMALE_CFD-WF-015-022-HO_ILL9.png,,
,,,,,21156,001,F,19,2026-03-26_19h57.22.777,RUN_BETA,2026.1.0,Win32,59.52380952,281.2343,281.7332,281.7364,283.8753,[0.518518575032552],[0.1388888888888889],[1],[0],[0],[2.139499999999998],0,55,55,1,1,./IMAGES_ONLINE_EXPERIMENT/FEMALE_CFD-WF-029-002-N_ILL10_C3.png,./IMAGES_ONLINE_EXPERIMENT/FEMALE_CFD-WF-006-011-F_ILL10_C4.png,./IMAGES_ONLINE_EXPERIMENT/FEMALE_CFD-WF-022-007-HC_ILL10_C1.png,./IMAGES_ONLINE_EXPERIMENT/FEMALE_CFD-WF-033-035-F_ILL10_C6.png,./IMAGES_ONLINE_EXPERIMENT/FEMALE_CFD-WF-037-029-N_ILL10_C2.png,./IMAGES_ONLINE_EXPERIMENT/FEMALE_CFD-WF-017-023-A_ILL10_C5.png,./IMAGES_ONLINE_EXPERIMENT/FEMALE_CFD-WF-033-005-HO_ILL9.png,,
,,,,,21156,001,F,19,2026-03-26_19h57.22.777,RUN_BETA,2026.1.0,Win32,59.52380952,283.8757,284.3661,284.3693,290.1426,[-0.5185184902615018],[-0.2611111111111111],[1],[0],[0],[5.774099999994007],0,56,56,49,1,./IMAGES_ONLINE_EXPERIMENT/FEMALE_CFD-WF-037-029-N_ILL10_C3.png,./IMAGES_ONLINE_EXPERIMENT/FEMALE_CFD-WF-039-005-HO_ILL10_C5.png,./IMAGES_ONLINE_EXPERIMENT/FEMALE_CFD-WF-018-019-HC_ILL10_C2.png,./IMAGES_ONLINE_EXPERIMENT/FEMALE_CFD-WF-034-016-A_ILL10_C6.png,./IMAGES_ONLINE_EXPERIMENT/FEMALE_CFD-WF-006-006-HO_ILL10_C1.png,./IMAGES_ONLINE_EXPERIMENT/FEMALE_CFD-WF-007-029-A_ILL10_C4.png,./IMAGES_ONLINE_EXPERIMENT/FEMALE_CFD-WF-034-033-HO_ILL9.png,,
,,,,,21156,001,F,19,2026-03-26_19h57.22.777,RUN_BETA,2026.1.0,Win32,59.52380952,290.1429,290.633,290.6362,293.609,[0.004629686143663194],[-0.15],[1],[0],[0],[2.9733999999984917],0,57,57,12,1,./IMAGES_ONLINE_EXPERIMENT/FEMALE_CFD-WF-022-014-F_ILL10_C5.png,./IMAGES_ONLINE_EXPERIMENT/FEMALE_CFD-WF-026-008-A_ILL10_C1.png,./IMAGES_ONLINE_EXPERIMENT/FEMALE_CFD-WF-039-032-A_ILL10_C2.png,./IMAGES_ONLINE_EXPERIMENT/FEMALE_CFD-WF-034-028-F_ILL10_C4.png,./IMAGES_ONLINE_EXPERIMENT/FEMALE_CFD-WF-007-029-A_ILL10_C3.png,./IMAGES_ONLINE_EXPERIMENT/FEMALE_CFD-WF-029-021-HO_ILL10_C6.png,./IMAGES_ONLINE_EXPERIMENT/FEMALE_CFD-WF-029-023-HC_ILL7.png,,
,,,,,21156,001,F,19,2026-03-26_19h57.22.777,RUN_BETA,2026.1.0,Win32,59.52380952,293.6097,294.0994,294.1027,298.365,[0.47407413058810766],[-0.26944444444444443],[1],[0],[0],[4.26309999999404],0,58,58,26,1,./IMAGES_ONLINE_EXPERIMENT/FEMALE_CFD-WF-020-012-A_ILL10_C2.png,./IMAGES_ONLINE_EXPERIMENT/FEMALE_CFD-WF-028-026-A_ILL10_C3.png,./IMAGES_ONLINE_EXPERIMENT/FEMALE_CFD-WF-015-022-HO_ILL10_C1.png,./IMAGES_ONLINE_EXPERIMENT/FEMALE_CFD-WF-013-015-A_ILL10_C4.png,./IMAGES_ONLINE_EXPERIMENT/FEMALE_CFD-WF-031-009-HC_ILL10_C5.png,./IMAGES_ONLINE_EXPERIMENT/FEMALE_CFD-WF-039-032-A_ILL10_C6.png,./IMAGES_ONLINE_EXPERIMENT/FEMALE_CFD-WF-039-005-HO_ILL10.png,,
,,,,,21156,001,F,19,2026-03-26_19h57.22.777,RUN_BETA,2026.1.0,Win32,59.52380952,298.3655,298.8652,298.8669,302.8651,[-0.4666666666666667],[0.19722222222222222],[1],[0],[0],[3.998899999998514],0,59,59,7,1,./IMAGES_ONLINE_EXPERIMENT/MALES_CFD-WM-041-023-HC_ILL10_C4.png,./IMAGES_ONLINE_EXPERIMENT/MALES_CFD-WM-014-008-HC_ILL10_C1.png,./IMAGES_ONLINE_EXPERIMENT/MALES_CFD-WM-037-034-HO_ILL10_C3.png,./IMAGES_ONLINE_EXPERIMENT/MALES_CFD-WM-041-021-N_ILL10_C5.png,./IMAGES_ONLINE_EXPERIMENT/MALES_CFD-WM-016-001-N_ILL10_C6.png,./IMAGES_ONLINE_EXPERIMENT/MALES_CFD-WM-015-005-HO_ILL10_C2.png,./IMAGES_ONLINE_EXPERIMENT/MALES_CFD-WM-016-008-A_ILL9.png,,
,,,,,21156,001,F,19,2026-03-26_19h57.22.777,RUN_BETA,2026.1.0,Win32,59.52380952,302.8657,303.3652,303.3672,306.0152,[-0.02685182359483507],[-0.17407408820258247],[1],[0],[0],[2.6492000000029634],0,60,60,35,1,./IMAGES_ONLINE_EXPERIMENT/MALES_CFD-WM-006-022-A_ILL9_C2.png,./IMAGES_ONLINE_EXPERIMENT/MALES_CFD-WM-013-015-A_ILL9_C3.png,./IMAGES_ONLINE_EXPERIMENT/MALES_CFD-WM-001-011-HO_ILL9_C5.png,./IMAGES_ONLINE_EXPERIMENT/MALES_CFD-WM-023-004-HO_ILL9_C1.png,./IMAGES_ONLINE_EXPERIMENT/MALES_CFD-WM-020-005-HC_ILL9_C6.png,./IMAGES_ONLINE_EXPERIMENT/MALES_CFD-WM-029-020-F_ILL9_C4.png,./IMAGES_ONLINE_EXPERIMENT/MALES_CFD-WM-020-012-F_ILL9.png,,
,,,,,21156,001,F,19,2026-03-26_19h57.22.777,RUN_BETA,2026.1.0,Win32,59.52380952,306.0157,306.5148,306.5158,308.9325,[0.4759259541829427],[0.22777777777777777],[1],[0],[0],[2.416699999995501],0,61,61,46,1,./IMAGES_ONLINE_EXPERIMENT/MALES_CFD-WM-038-018-F_ILL7_C2.png,./IMAGES_ONLINE_EXPERIMENT/MALES_CFD-WM-002-009-N_ILL7_C4.png,./IMAGES_ONLINE_EXPERIMENT/MALES_CFD-WM-013-006-HO_ILL7_C6.png,./IMAGES_ONLINE_EXPERIMENT/MALES_CFD-WM-025-018-HC_ILL7_C3.png,./IMAGES_ONLINE_EXPERIMENT/MALES_CFD-WM-040-022-N_ILL7_C5.png,./IMAGES_ONLINE_EXPERIMENT/MALES_CFD-WM-010-020-F_ILL7_C1.png,./IMAGES_ONLINE_EXPERIMENT/MALES_CFD-WM-013-015-A_ILL7.png,,
,,,,,21156,001,F,19,2026-03-26_19h57.22.777,RUN_BETA,2026.1.0,Win32,59.52380952,308.9353,309.4321,309.4353,311.4083,[0.075],[0.2712962892320421],[1],[0],[0],[1.9737000000029639],0,62,62,107,1,./IMAGES_ONLINE_EXPERIMENT/MALES_CFD-WM-033-025-N_ILL9_C1.png,./IMAGES_ONLINE_EXPERIMENT/MALES_CFD-WM-003-008-A_ILL9_C6.png,./IMAGES_ONLINE_EXPERIMENT/MALES_CFD-WM-024-010-A_ILL9_C5.png,./IMAGES_ONLINE_EXPERIMENT/MALES_CFD-WM-029-020-F_ILL9_C3.png,./IMAGES_ONLINE_EXPERIMENT/MALES_CFD-WM-006-039-F_ILL9_C4.png,./IMAGES_ONLINE_EXPERIMENT/MALES_CFD-WM-016-008-A_ILL9_C2.png,./IMAGES_ONLINE_EXPERIMENT/MALES_CFD-WM-003-006-HC_ILL9.png,,
,,,,,21156,001,F,19,2026-03-26_19h57.22.777,RUN_BETA,2026.1.0,Win32,59.52380952,311.4088,311.8991,311.9023,316.7156,[-0.4629629347059462],[-0.20462964375813802],[1],[0],[0],[4.814000000000021],0,63,63,116,1,./IMAGES_ONLINE_EXPERIMENT/MALES_CFD-WM-013-001-N_ILL10_C2.png,./IMAGES_ONLINE_EXPERIMENT/MALES_CFD-WM-038-011-A_ILL10_C6.png,./IMAGES_ONLINE_EXPERIMENT/MALES_CFD-WM-003-006-HC_ILL10_C5.png,./IMAGES_ONLINE_EXPERIMENT/MALES_CFD-WM-036-031-N_ILL10_C4.png,./IMAGES_ONLINE_EXPERIMENT/MALES_CFD-WM-006-010-HO_ILL10_C1.png,./IMAGES_ONLINE_EXPERIMENT/MALES_CFD-WM-022-012-F_ILL10_C3.png,./IMAGES_ONLINE_EXPERIMENT/MALES_CFD-WM-038-007-HC_ILL10.png,,
,,,,,21156,001,F,19,2026-03-26_19h57.22.777,RUN_BETA,2026.1.0,Win32,59.52380952,316.7184,317.2157,317.2188,319.7314,[0.43703706529405384],[0.17592591179741754],[1],[0],[0],[2.513300000004506],0,64,64,21,1,./IMAGES_ONLINE_EXPERIMENT/MALES_CFD-WM-033-006-HC_ILL10_C3.png,./IMAGES_ONLINE_EXPERIMENT/MALES_CFD-WM-022-008-A_ILL10_C2.png,./IMAGES_ONLINE_EXPERIMENT/MALES_CFD-WM-002-009-N_ILL10_C6.png,./IMAGES_ONLINE_EXPERIMENT/MALES_CFD-WM-022-005-HO_ILL10_C5.png,./IMAGES_ONLINE_EXPERIMENT/MALES_CFD-WM-012-005-HO_ILL10_C4.png,./IMAGES_ONLINE_EXPERIMENT/MALES_CFD-WM-023-012-A_ILL10_C1.png,./IMAGES_ONLINE_EXPERIMENT/MALES_CFD-WM-002-007-HO_ILL10.png,,
,,,,,21156,001,F,19,2026-03-26_19h57.22.777,RUN_BETA,2026.1.0,Win32,59.52380952,319.7318,320.2314,320.2356,322.1646,[0.04629635281032986],[0.25740740034315324],[1],[0],[0],[1.9321999999955324],0,65,65,117,1,./IMAGES_ONLINE_EXPERIMENT/MALES_CFD-WM-013-006-HO_ILL10_C5.png,./IMAGES_ONLINE_EXPERIMENT/MALES_CFD-WM-022-012-F_ILL10_C6.png,./IMAGES_ONLINE_EXPERIMENT/MALES_CFD-WM-031-004-HO_ILL10_C3.png,./IMAGES_ONLINE_EXPERIMENT/MALES_CFD-WM-012-026-F_ILL10_C1.png,./IMAGES_ONLINE_EXPERIMENT/MALES_CFD-WM-036-031-N_ILL10_C2.png,./IMAGES_ONLINE_EXPERIMENT/MALES_CFD-WM-018-007-A_ILL10_C4.png,./IMAGES_ONLINE_EXPERIMENT/MALES_CFD-WM-022-005-HO_ILL10.png,,
,,,,,21156,001,F,19,2026-03-26_19h57.22.777,RUN_BETA,2026.1.0,Win32,59.52380952,322.1649,322.6647,322.6659,325.3478,[-0.44814813401963977],[0.13981480068630642],[1],[0],[0],[2.6823000000044885],0,66,66,79,1,./IMAGES_ONLINE_EXPERIMENT/MALES_CFD-WM-020-008-A_ILL10_C6.png,./IMAGES_ONLINE_EXPERIMENT/MALES_CFD-WM-019-017-F_ILL10_C3.png,./IMAGES_ONLINE_EXPERIMENT/MALES_CFD-WM-032-001-N_ILL10_C2.png,./IMAGES_ONLINE_EXPERIMENT/MALES_CFD-WM-019-003-N_ILL10_C5.png,./IMAGES_ONLINE_EXPERIMENT/MALES_CFD-WM-001-007-HC_ILL10_C4.png,./IMAGES_ONLINE_EXPERIMENT/MALES_CFD-WM-032-021-F_ILL10_C1.png,./IMAGES_ONLINE_EXPERIMENT/MALES_CFD-WM-020-001-N_ILL9.png,,
,,,,,21156,001,F,19,2026-03-26_19h57.22.777,RUN_BETA,2026.1.0,Win32,59.52380952,325.3486,325.8479,325.8495,327.6144,[-0.4490740458170573],[0.14444444444444443],[1],[0],[0],[1.7656000000014842],0,67,67,55,1,./IMAGES_ONLINE_EXPERIMENT/MALES_CFD-WM-003-006-HC_ILL10_C6.png,./IMAGES_ONLINE_EXPERIMENT/MALES_CFD-WM-018-005-HC_ILL10_C1.png,./IMAGES_ONLINE_EXPERIMENT/MALES_CFD-WM-011-006-HC_ILL10_C2.png,./IMAGES_ONLINE_EXPERIMENT/MALES_CFD-WM-018-007-A_ILL10_C3.png,./IMAGES_ONLINE_EXPERIMENT/MALES_CFD-WM-038-018-F_ILL10_C5.png,./IMAGES_ONLINE_EXPERIMENT/MALES_CFD-WM-009-009-A_ILL10_C4.png,./IMAGES_ONLINE_EXPERIMENT/MALES_CFD-WM-003-003-HO_ILL9.png,,
,,,,,21156,001,F,19,2026-03-26_19h57.22.777,RUN_BETA,2026.1.0,Win32,59.52380952,327.6148,328.1146,328.1165,330.0073,[-0.535185178120931],[-0.17685186598036023],[1],[0],[0],[1.89180000000448],0,68,68,4,1,./IMAGES_ONLINE_EXPERIMENT/FEMALE_CFD-WF-010-013-F_ILL7_C1.png,./IMAGES_ONLINE_EXPERIMENT/FEMALE_CFD-WF-019-035-HO_ILL7_C4.png,./IMAGES_ONLINE_EXPERIMENT/FEMALE_CFD-WF-021-018-A_ILL7_C6.png,./IMAGES_ONLINE_EXPERIMENT/FEMALE_CFD-WF-031-045-F_ILL7_C5.png,./IMAGES_ONLINE_EXPERIMENT/FEMALE_CFD-WF-023-013-A_ILL7_C2.png,./IMAGES_ONLINE_EXPERIMENT/FEMALE_CFD-WF-011-002-N_ILL7_C3.png,./IMAGES_ONLINE_EXPERIMENT/FEMALE_CFD-WF-021-016-HO_ILL7.png,,
,,,,,21156,001,F,19,2026-03-26_19h57.22.777,RUN_BETA,2026.1.0,Win32,59.52380952,330.0077,330.4985,330.5016,334.0149,[-0.45555555555555555],[0.21481480068630643],[1],[0],[0],[3.5137999999970475],0,69,69,62,1,./IMAGES_ONLINE_EXPERIMENT/FEMALE_CFD-WF-016-017-HC_ILL10_C3.png,./IMAGES_ONLINE_EXPERIMENT/FEMALE_CFD-WF-011-006-HC_ILL10_C6.png,./IMAGES_ONLINE_EXPERIMENT/FEMALE_CFD-WF-010-014-A_ILL10_C2.png,./IMAGES_ONLINE_EXPERIMENT/FEMALE_CFD-WF-030-031-HC_ILL10_C1.png,./IMAGES_ONLINE_EXPERIMENT/FEMALE_CFD-WF-037-016-A_ILL10_C5.png,./IMAGES_ONLINE_EXPERIMENT/FEMALE_CFD-WF-027-007-HC_ILL10_C4.png,./IMAGES_ONLINE_EXPERIMENT/FEMALE_CFD-WF-011-002-N_ILL10.png,,
,,,,,21156,001,F,19,2026-03-26_19h57.22.777,RUN_BETA,2026.1.0,Win32,59.52380952,334.0181,334.5147,334.5179,337.2646,[0.2509259541829427],[0.1574074003431532],[1],[0],[0],[2.7473999999984926],0,70,70,105,1,./IMAGES_ONLINE_EXPERIMENT/MALES_CFD-WM-031-004-HO_ILL10_C3.png,./IMAGES_ONLINE_EXPERIMENT/MALES_CFD-WM-015-005-HO_ILL10_C5.png,./IMAGES_ONLINE_EXPERIMENT/MALES_CFD-WM-035-033-HO_ILL10_C4.png,./IMAGES_ONLINE_EXPERIMENT/MALES_CFD-WM-001-014-N_ILL10_C1.png,./IMAGES_ONLINE_EXPERIMENT/MALES_CFD-WM-004-011-A_ILL10_C6.png,./IMAGES_ONLINE_EXPERIMENT/MALES_CFD-WM-037-025-N_ILL10_C2.png,./IMAGES_ONLINE_EXPERIMENT/MALES_CFD-WM-004-010-N_ILL10.png,,
,,,,,21156,001,F,19,2026-03-26_19h57.22.777,RUN_BETA,2026.1.0,Win32,59.52380952,337.2675,337.7648,337.7683,340.8307,[-0.39166666666666666],[-0.12777777777777777],[1],[0],[0],[3.063600000001486],0,71,71,113,1,./IMAGES_ONLINE_EXPERIMENT/FEMALE_CFD-WF-010-014-A_ILL9_C1.png,./IMAGES_ONLINE_EXPERIMENT/FEMALE_CFD-WF-014-002-N_ILL9_C5.png,./IMAGES_ONLINE_EXPERIMENT/FEMALE_CFD-WF-025-031-F_ILL9_C4.png,./IMAGES_ONLINE_EXPERIMENT/FEMALE_CFD-WF-033-041-HC_ILL9_C2.png,./IMAGES_ONLINE_EXPERIMENT/FEMALE_CFD-WF-036-026-HO_ILL9_C6.png,./IMAGES_ONLINE_EXPERIMENT/FEMALE_CFD-WF-022-017-N_ILL9_C3.png,./IMAGES_ONLINE_EXPERIMENT/FEMALE_CFD-WF-036-030-HC_ILL9.png,,
,,,,,21156,001,F,19,2026-03-26_19h57.22.777,RUN_BETA,2026.1.0,Win32,59.52380952,340.8312,341.3309,341.3331,343.7984,[0.020370398627387154],[-0.3407407972547743],[1],[0],[0],[2.4658999999984985],0,72,72,41,1,./IMAGES_ONLINE_EXPERIMENT/FEMALE_CFD-WF-003-007-HC_ILL9_C1.png,./IMAGES_ONLINE_EXPERIMENT/FEMALE_CFD-WF-013-015-A_ILL9_C5.png,./IMAGES_ONLINE_EXPERIMENT/FEMALE_CFD-WF-027-021-HO_ILL9_C2.png,./IMAGES_ONLINE_EXPERIMENT/FEMALE_CFD-WF-027-003-N_ILL9_C3.png,./IMAGES_ONLINE_EXPERIMENT/FEMALE_CFD-WF-021-013-F_ILL9_C6.png,./IMAGES_ONLINE_EXPERIMENT/FEMALE_CFD-WF-038-033-F_ILL9_C4.png,./IMAGES_ONLINE_EXPERIMENT/FEMALE_CFD-WF-021-006-HC_ILL9.png,,
,,,,,21156,001,F,19,2026-03-26_19h57.22.777,RUN_BETA,2026.1.0,Win32,59.52380952,343.8008,344.2977,344.3002,347.2571,[0.06111111111111111],[0.24814813401963975],[1],[0],[0],[2.957399999998529],0,73,73,92,1,./IMAGES_ONLINE_EXPERIMENT/MALES_CFD-WM-010-004-HO_ILL10_C5.png,./IMAGES_ONLINE_EXPERIMENT/MALES_CFD-WM-036-034-HO_ILL10_C3.png,./IMAGES_ONLINE_EXPERIMENT/MALES_CFD-WM-038-011-A_ILL10_C6.png,./IMAGES_ONLINE_EXPERIMENT/MALES_CFD-WM-023-007-HC_ILL10_C4.png,./IMAGES_ONLINE_EXPERIMENT/MALES_CFD-WM-023-015-F_ILL10_C2.png,./IMAGES_ONLINE_EXPERIMENT/MALES_CFD-WM-002-008-HC_ILL10_C1.png,./IMAGES_ONLINE_EXPERIMENT/MALES_CFD-WM-038-007-HC_ILL10.png,,
,,,,,21156,001,F,19,2026-03-26_19h57.22.777,RUN_BETA,2026.1.0,Win32,59.52380952,347.2575,347.7559,347.7566,350.057,[-0.002777777777777778],[-0.20462964375813802],[1],[0],[0],[2.3004999999999995],0,74,74,106,1,./IMAGES_ONLINE_EXPERIMENT/MALES_CFD-WM-032-008-HC_ILL7_C3.png,./IMAGES_ONLINE_EXPERIMENT/MALES_CFD-WM-012-026-F_ILL7_C5.png,./IMAGES_ONLINE_EXPERIMENT/MALES_CFD-WM-013-006-HO_ILL7_C2.png,./IMAGES_ONLINE_EXPERIMENT/MALES_CFD-WM-014-004-HO_ILL7_C6.png,./IMAGES_ONLINE_EXPERIMENT/MALES_CFD-WM-041-009-A_ILL7_C1.png,./IMAGES_ONLINE_EXPERIMENT/MALES_CFD-WM-023-004-HO_ILL7_C4.png,./IMAGES_ONLINE_EXPERIMENT/MALES_CFD-WM-014-002-N_ILL7.png,,
,,,,,21156,001,F,19,2026-03-26_19h57.22.777,RUN_BETA,2026.1.0,Win32,59.52380952,350.0575,350.5484,350.5514,352.8803,[0.3425926208496094],[-0.23796301947699652],[1],[0],[0],[2.3290000000000077],0,75,75,108,1,./IMAGES_ONLINE_EXPERIMENT/FEMALE_CFD-WF-010-008-HC_ILL10_C5.png,./IMAGES_ONLINE_EXPERIMENT/FEMALE_CFD-WF-019-015-A_ILL10_C2.png,./IMAGES_ONLINE_EXPERIMENT/FEMALE_CFD-WF-008-016-F_ILL10_C1.png,./IMAGES_ONLINE_EXPERIMENT/FEMALE_CFD-WF-034-016-A_ILL10_C4.png,./IMAGES_ONLINE_EXPERIMENT/FEMALE_CFD-WF-001-027-F_ILL10_C3.png,./IMAGES_ONLINE_EXPERIMENT/FEMALE_CFD-WF-025-019-N_ILL10_C6.png,./IMAGES_ONLINE_EXPERIMENT/FEMALE_CFD-WF-025-015-A_ILL7.png,,
,,,,,21156,001,F,19,2026-03-26_19h57.22.777,RUN_BETA,2026.1.0,Win32,59.52380952,352.8807,353.3806,353.3821,355.0023,[0.01018524169921875],[-0.3287037319607205],[1],[0],[0],[1.6209000000059746],0,76,76,63,1,./IMAGES_ONLINE_EXPERIMENT/FEMALE_CFD-WF-028-025-HC_ILL10_C2.png,./IMAGES_ONLINE_EXPERIMENT/FEMALE_CFD-WF-025-006-HO_ILL10_C3.png,./IMAGES_ONLINE_EXPERIMENT/FEMALE_CFD-WF-025-031-F_ILL10_C1.png,./IMAGES_ONLINE_EXPERIMENT/FEMALE_CFD-WF-025-023-HC_ILL10_C4.png,./IMAGES_ONLINE_EXPERIMENT/FEMALE_CFD-WF-012-007-HO_ILL10_C6.png,./IMAGES_ONLINE_EXPERIMENT/FEMALE_CFD-WF-016-021-A_ILL10_C5.png,./IMAGES_ONLINE_EXPERIMENT/FEMALE_CFD-WF-012-012-A_ILL10.png,,
,,,,,21156,001,F,19,2026-03-26_19h57.22.777,RUN_BETA,2026.1.0,Win32,59.52380952,355.0026,355.497,355.4998,358.7808,[0.4620370652940538],[0.08333333333333333],[1],[0],[0],[3.2816000000015038],0,77,77,99,1,./IMAGES_ONLINE_EXPERIMENT/FEMALE_CFD-WF-010-013-F_ILL10_C1.png,./IMAGES_ONLINE_EXPERIMENT/FEMALE_CFD-WF-007-005-HC_ILL10_C2.png,./IMAGES_ONLINE_EXPERIMENT/FEMALE_CFD-WF-038-030-A_ILL10_C3.png,./IMAGES_ONLINE_EXPERIMENT/FEMALE_CFD-WF-020-012-A_ILL10_C4.png,./IMAGES_ONLINE_EXPERIMENT/FEMALE_CFD-WF-028-023-N_ILL10_C5.png,./IMAGES_ONLINE_EXPERIMENT/FEMALE_CFD-WF-015-006-N_ILL10_C6.png,./IMAGES_ONLINE_EXPERIMENT/FEMALE_CFD-WF-015-022-HO_ILL10.png,,
,,,,,21156,001,F,19,2026-03-26_19h57.22.777,RUN_BETA,2026.1.0,Win32,59.52380952,358.7832,359.2809,359.2844,361.1983,[0.3861111111111111],[-0.22037039862738717],[1],[0],[0],[1.913799999996968],0,78,78,82,1,./IMAGES_ONLINE_EXPERIMENT/MALES_CFD-WM-016-005-HC_ILL7_C3.png,./IMAGES_ONLINE_EXPERIMENT/MALES_CFD-WM-034-035-HO_ILL7_C1.png,./IMAGES_ONLINE_EXPERIMENT/MALES_CFD-WM-033-007-HO_ILL7_C6.png,./IMAGES_ONLINE_EXPERIMENT/MALES_CFD-WM-024-007-HC_ILL7_C2.png,./IMAGES_ONLINE_EXPERIMENT/MALES_CFD-WM-010-007-HC_ILL7_C4.png,./IMAGES_ONLINE_EXPERIMENT/MALES_CFD-WM-015-017-A_ILL7_C5.png,./IMAGES_ONLINE_EXPERIMENT/MALES_CFD-WM-033-025-N_ILL7.png,,
,,,,,21156,001,F,19,2026-03-26_19h57.22.777,RUN_BETA,2026.1.0,Win32,59.52380952,361.2007,361.6972,361.7003,369.4302,[-0.39444444444444443],[-0.2675926208496094],[1],[0],[0],[7.730600000001516],0,79,79,51,1,./IMAGES_ONLINE_EXPERIMENT/FEMALE_CFD-WF-022-007-HC_ILL10_C2.png,./IMAGES_ONLINE_EXPERIMENT/FEMALE_CFD-WF-030-003-HO_ILL10_C6.png,./IMAGES_ONLINE_EXPERIMENT/FEMALE_CFD-WF-024-003-N_ILL10_C1.png,./IMAGES_ONLINE_EXPERIMENT/FEMALE_CFD-WF-011-011-A_ILL10_C5.png,./IMAGES_ONLINE_EXPERIMENT/FEMALE_CFD-WF-039-008-HC_ILL10_C4.png,./IMAGES_ONLINE_EXPERIMENT/FEMALE_CFD-WF-031-005-HO_ILL10_C3.png,./IMAGES_ONLINE_EXPERIMENT/FEMALE_CFD-WF-030-002-N_ILL10.png,,
,,,,,21156,001,F,19,2026-03-26_19h57.22.777,RUN_BETA,2026.1.0,Win32,59.52380952,369.4309,369.9302,369.9317,376.098,[-0.05277777777777778],[0.1712962892320421],[1],[0],[0],[6.166300000004469],0,80,80,36,1,./IMAGES_ONLINE_EXPERIMENT/FEMALE_CFD-WF-001-010-HC_ILL10_C4.png,./IMAGES_ONLINE_EXPERIMENT/FEMALE_CFD-WF-025-023-HC_ILL10_C6.png,./IMAGES_ONLINE_EXPERIMENT/FEMALE_CFD-WF-036-030-HC_ILL10_C2.png,./IMAGES_ONLINE_EXPERIMENT/FEMALE_CFD-WF-018-013-F_ILL10_C1.png,./IMAGES_ONLINE_EXPERIMENT/FEMALE_CFD-WF-006-006-HO_ILL10_C5.png,./IMAGES_ONLINE_EXPERIMENT/FEMALE_CFD-WF-009-006-HC_ILL10_C3.png,./IMAGES_ONLINE_EXPERIMENT/FEMALE_CFD-WF-025-006-HO_ILL7.png,,
,,,,,21156,001,F,19,2026-03-26_19h57.22.777,RUN_BETA,2026.1.0,Win32,59.52380952,376.1004,376.5969,376.5996,379.664,[0.07037039862738716],[-0.28518524169921877],[1],[0],[0],[3.064600000001519],0,81,81,67,1,./IMAGES_ONLINE_EXPERIMENT/MALES_CFD-WM-013-015-A_ILL10_C2.png,./IMAGES_ONLINE_EXPERIMENT/MALES_CFD-WM-009-014-F_ILL10_C4.png,./IMAGES_ONLINE_EXPERIMENT/MALES_CFD-WM-013-019-F_ILL10_C1.png,./IMAGES_ONLINE_EXPERIMENT/MALES_CFD-WM-018-005-HC_ILL10_C3.png,./IMAGES_ONLINE_EXPERIMENT/MALES_CFD-WM-040-023-HO_ILL10_C6.png,./IMAGES_ONLINE_EXPERIMENT/MALES_CFD-WM-014-008-HC_ILL10_C5.png,./IMAGES_ONLINE_EXPERIMENT/MALES_CFD-WM-040-007-A_ILL9.png,,
,,,,,21156,001,F,19,2026-03-26_19h57.22.777,RUN_BETA,2026.1.0,Win32,59.52380952,379.6668,380.1637,380.167,384.3796,[0.027777777777777776],[-0.175],[1],[0],[0],[4.212899999998513],0,82,82,5,1,./IMAGES_ONLINE_EXPERIMENT/FEMALE_CFD-WF-007-003-HO_ILL9_C5.png,./IMAGES_ONLINE_EXPERIMENT/FEMALE_CFD-WF-022-019-HO_ILL9_C3.png,./IMAGES_ONLINE_EXPERIMENT/FEMALE_CFD-WF-002-004-N_ILL9_C2.png,./IMAGES_ONLINE_EXPERIMENT/FEMALE_CFD-WF-025-031-F_ILL9_C4.png,./IMAGES_ONLINE_EXPERIMENT/FEMALE_CFD-WF-003-004-HO_ILL9_C1.png,./IMAGES_ONLINE_EXPERIMENT/FEMALE_CFD-WF-036-023-N_ILL9_C6.png,./IMAGES_ONLINE_EXPERIMENT/FEMALE_CFD-WF-036-015-A_ILL9.png,,
,,,,,21156,001,F,19,2026-03-26_19h57.22.777,RUN_BETA,2026.1.0,Win32,59.52380952,384.3831,384.88,384.8831,388.6958,[-0.39444444444444443],[-0.2388888888888889],[1],[0],[0],[3.8133999999984667],0,83,83,87,1,./IMAGES_ONLINE_EXPERIMENT/FEMALE_CFD-WF-019-024-F_ILL10_C3.png,./IMAGES_ONLINE_EXPERIMENT/FEMALE_CFD-WF-024-010-HC_ILL10_C4.png,./IMAGES_ONLINE_EXPERIMENT/FEMALE_CFD-WF-001-010-HC_ILL10_C1.png,./IMAGES_ONLINE_EXPERIMENT/FEMALE_CFD-WF-029-026-A_ILL10_C5.png,./IMAGES_ONLINE_EXPERIMENT/FEMALE_CFD-WF-034-006-N_ILL10_C6.png,./IMAGES_ONLINE_EXPERIMENT/FEMALE_CFD-WF-022-023-A_ILL10_C2.png,./IMAGES_ONLINE_EXPERIMENT/FEMALE_CFD-WF-034-016-A_ILL10.png,,
,,,,,21156,001,F,19,2026-03-26_19h57.22.777,RUN_BETA,2026.1.0,Win32,59.52380952,388.6962,389.1961,389.201,395.1966,[0.507407463921441],[0.2722222222222222],[1],[0],[0],[5.996999999999957],0,84,84,9,1,./IMAGES_ONLINE_EXPERIMENT/MALES_CFD-WM-038-003-N_ILL10_C2.png,./IMAGES_ONLINE_EXPERIMENT/MALES_CFD-WM-034-032-HC_ILL10_C3.png,./IMAGES_ONLINE_EXPERIMENT/MALES_CFD-WM-041-021-N_ILL10_C5.png,./IMAGES_ONLINE_EXPERIMENT/MALES_CFD-WM-041-009-A_ILL10_C4.png,./IMAGES_ONLINE_EXPERIMENT/MALES_CFD-WM-029-023-N_ILL10_C6.png,./IMAGES_ONLINE_EXPERIMENT/MALES_CFD-WM-003-003-HO_ILL10_C1.png,./IMAGES_ONLINE_EXPERIMENT/MALES_CFD-WM-029-029-HO_ILL10.png,,
,,,,,21156,001,F,19,2026-03-26_19h57.22.777,RUN_BETA,2026.1.0,Win32,59.52380952,395.1994,395.6965,395.699,399.0804,[-0.525],[-0.24537039862738716],[1],[0],[0],[3.3816000000014697],0,85,85,91,1,./IMAGES_ONLINE_EXPERIMENT/MALES_CFD-WM-013-008-HC_ILL10_C4.png,./IMAGES_ONLINE_EXPERIMENT/MALES_CFD-WM-033-007-HO_ILL10_C2.png,./IMAGES_ONLINE_EXPERIMENT/MALES_CFD-WM-031-032-F_ILL10_C3.png,./IMAGES_ONLINE_EXPERIMENT/MALES_CFD-WM-026-013-F_ILL10_C6.png,./IMAGES_ONLINE_EXPERIMENT/MALES_CFD-WM-032-008-HC_ILL10_C5.png,./IMAGES_ONLINE_EXPERIMENT/MALES_CFD-WM-028-019-F_ILL10_C1.png,./IMAGES_ONLINE_EXPERIMENT/MALES_CFD-WM-026-004-HC_ILL9.png,,
,,,,,21156,001,F,19,2026-03-26_19h57.22.777,RUN_BETA,2026.1.0,Win32,59.52380952,399.0829,399.5803,399.5831,403.1467,[-0.03703698052300347],[-0.3861111111111111],[1],[0],[0],[3.5638000000045054],0,86,86,52,1,./IMAGES_ONLINE_EXPERIMENT/FEMALE_CFD-WF-011-006-HC_ILL7_C2.png,./IMAGES_ONLINE_EXPERIMENT/FEMALE_CFD-WF-028-019-F_ILL7_C5.png,./IMAGES_ONLINE_EXPERIMENT/FEMALE_CFD-WF-033-031-A_ILL7_C4.png,./IMAGES_ONLINE_EXPERIMENT/FEMALE_CFD-WF-037-024-F_ILL7_C1.png,./IMAGES_ONLINE_EXPERIMENT/FEMALE_CFD-WF-034-028-F_ILL7_C6.png,./IMAGES_ONLINE_EXPERIMENT/FEMALE_CFD-WF-028-025-HC_ILL7_C3.png,./IMAGES_ONLINE_EXPERIMENT/FEMALE_CFD-WF-034-006-N_ILL7.png,,
,,,,,21156,001,F,19,2026-03-26_19h57.22.777,RUN_BETA,2026.1.0,Win32,59.52380952,403.1491,403.6464,403.6494,407.3788,[0.011111111111111112],[0.185185178120931],[1],[0],[0],[3.729699999995489],0,87,87,59,1,./IMAGES_ONLINE_EXPERIMENT/MALES_CFD-WM-010-004-HO_ILL9_C4.png,./IMAGES_ONLINE_EXPERIMENT/MALES_CFD-WM-033-006-HC_ILL9_C1.png,./IMAGES_ONLINE_EXPERIMENT/MALES_CFD-WM-021-004-HO_ILL9_C2.png,./IMAGES_ONLINE_EXPERIMENT/MALES_CFD-WM-028-005-HC_ILL9_C6.png,./IMAGES_ONLINE_EXPERIMENT/MALES_CFD-WM-022-003-HC_ILL9_C5.png,./IMAGES_ONLINE_EXPERIMENT/MALES_CFD-WM-032-004-HO_ILL9_C3.png,./IMAGES_ONLINE_EXPERIMENT/MALES_CFD-WM-028-003-N_ILL9.png,,
,,,,,21156,001,F,19,2026-03-26_19h57.22.777,RUN_BETA,2026.1.0,Win32,59.52380952,407.3813,407.8792,407.8818,409.9964,[0.011111111111111112],[0.185185178120931],[1],[0],[0],[2.1147999999969898],0,88,88,14,1,./IMAGES_ONLINE_EXPERIMENT/FEMALE_CFD-WF-029-018-F_ILL10_C3.png,./IMAGES_ONLINE_EXPERIMENT/FEMALE_CFD-WF-034-033-HO_ILL10_C6.png,./IMAGES_ONLINE_EXPERIMENT/FEMALE_CFD-WF-028-026-A_ILL10_C1.png,./IMAGES_ONLINE_EXPERIMENT/FEMALE_CFD-WF-025-031-F_ILL10_C4.png,./IMAGES_ONLINE_EXPERIMENT/FEMALE_CFD-WF-030-031-HC_ILL10_C5.png,./IMAGES_ONLINE_EXPERIMENT/FEMALE_CFD-WF-005-027-F_ILL10_C2.png,./IMAGES_ONLINE_EXPERIMENT/FEMALE_CFD-WF-034-028-F_ILL10.png,,
,,,,,21156,001,F,19,2026-03-26_19h57.22.777,RUN_BETA,2026.1.0,Win32,59.52380952,409.9992,410.4962,410.4992,416.0787,[0.03148150973849827],[0.23981480068630642],[1],[0],[0],[5.580100000001494],0,89,89,40,1,./IMAGES_ONLINE_EXPERIMENT/FEMALE_CFD-WF-026-002-N_ILL7_C3.png,./IMAGES_ONLINE_EXPERIMENT/FEMALE_CFD-WF-011-011-A_ILL7_C6.png,./IMAGES_ONLINE_EXPERIMENT/FEMALE_CFD-WF-021-016-HO_ILL7_C4.png,./IMAGES_ONLINE_EXPERIMENT/FEMALE_CFD-WF-013-015-A_ILL7_C2.png,./IMAGES_ONLINE_EXPERIMENT/FEMALE_CFD-WF-026-008-A_ILL7_C1.png,./IMAGES_ONLINE_EXPERIMENT/FEMALE_CFD-WF-009-006-HC_ILL7_C5.png,./IMAGES_ONLINE_EXPERIMENT/FEMALE_CFD-WF-011-016-F_ILL7.png,,
,,,,,21156,001,F,19,2026-03-26_19h57.22.777,RUN_BETA,2026.1.0,Win32,59.52380952,416.0815,416.579,416.5827,419.0948,[-0.46111111111111114],[-0.2509259541829427],[1],[0],[0],[2.512700000002951],0,90,90,3,1,./IMAGES_ONLINE_EXPERIMENT/FEMALE_CFD-WF-039-044-F_ILL10_C3.png,./IMAGES_ONLINE_EXPERIMENT/FEMALE_CFD-WF-020-002-N_ILL10_C1.png,./IMAGES_ONLINE_EXPERIMENT/FEMALE_CFD-WF-002-033-A_ILL10_C2.png,./IMAGES_ONLINE_EXPERIMENT/FEMALE_CFD-WF-034-006-N_ILL10_C6.png,./IMAGES_ONLINE_EXPERIMENT/FEMALE_CFD-WF-039-032-A_ILL10_C5.png,./IMAGES_ONLINE_EXPERIMENT/FEMALE_CFD-WF-007-029-A_ILL10_C4.png,./IMAGES_ONLINE_EXPERIMENT/FEMALE_CFD-WF-034-033-HO_ILL10.png,,
,,,,,21156,001,F,19,2026-03-26_19h57.22.777,RUN_BETA,2026.1.0,Win32,59.52380952,419.0954,419.5949,419.5959,423.7953,[-0.02870364718967014],[0.16296295589870877],[1],[0],[0],[4.199299999997038],0,91,91,15,1,./IMAGES_ONLINE_EXPERIMENT/FEMALE_CFD-WF-017-015-HO_ILL10_C4.png,./IMAGES_ONLINE_EXPERIMENT/FEMALE_CFD-WF-018-013-F_ILL10_C2.png,./IMAGES_ONLINE_EXPERIMENT/FEMALE_CFD-WF-031-045-F_ILL10_C5.png,./IMAGES_ONLINE_EXPERIMENT/FEMALE_CFD-WF-036-030-HC_ILL10_C6.png,./IMAGES_ONLINE_EXPERIMENT/FEMALE_CFD-WF-015-022-HO_ILL10_C1.png,./IMAGES_ONLINE_EXPERIMENT/FEMALE_CFD-WF-005-022-A_ILL10_C3.png,./IMAGES_ONLINE_EXPERIMENT/FEMALE_CFD-WF-036-040-F_ILL10.png,,
,,,,,21156,001,F,19,2026-03-26_19h57.22.777,RUN_BETA,2026.1.0,Win32,59.52380952,423.7983,424.2959,424.2987,427.8292,[0.5064815097384983],[-0.22407413058810763],[1],[0],[0],[3.5307000000029802],0,92,92,0,1,./IMAGES_ONLINE_EXPERIMENT/FEMALE_CFD-WF-035-027-HO_ILL10_C2.png,./IMAGES_ONLINE_EXPERIMENT/FEMALE_CFD-WF-039-005-HO_ILL10_C4.png,./IMAGES_ONLINE_EXPERIMENT/FEMALE_CFD-WF-006-003-HC_ILL10_C5.png,./IMAGES_ONLINE_EXPERIMENT/FEMALE_CFD-WF-010-013-F_ILL10_C3.png,./IMAGES_ONLINE_EXPERIMENT/FEMALE_CFD-WF-033-035-F_ILL10_C1.png,./IMAGES_ONLINE_EXPERIMENT/FEMALE_CFD-WF-005-022-A_ILL10_C6.png,./IMAGES_ONLINE_EXPERIMENT/FEMALE_CFD-WF-005-016-HC_ILL7.png,,
,,,,,21156,001,F,19,2026-03-26_19h57.22.777,RUN_BETA,2026.1.0,Win32,59.52380952,427.8316,428.3293,428.3318,436.2448,[0.028703731960720485],[0.1990740670098199],[1],[0],[0],[7.913199999995527],0,93,93,98,1,./IMAGES_ONLINE_EXPERIMENT/FEMALE_CFD-WF-013-006-HO_ILL10_C3.png,./IMAGES_ONLINE_EXPERIMENT/FEMALE_CFD-WF-018-017-N_ILL10_C1.png,./IMAGES_ONLINE_EXPERIMENT/FEMALE_CFD-WF-001-009-HO_ILL10_C6.png,./IMAGES_ONLINE_EXPERIMENT/FEMALE_CFD-WF-019-005-N_ILL10_C4.png,./IMAGES_ONLINE_EXPERIMENT/FEMALE_CFD-WF-033-002-N_ILL10_C2.png,./IMAGES_ONLINE_EXPERIMENT/FEMALE_CFD-WF-039-008-HC_ILL10_C5.png,./IMAGES_ONLINE_EXPERIMENT/FEMALE_CFD-WF-001-027-F_ILL10.png,,
,,,,,21156,001,F,19,2026-03-26_19h57.22.777,RUN_BETA,2026.1.0,Win32,59.52380952,436.247,436.7453,436.7485,441.3278,[0.028703731960720485],[0.1990740670098199],[1],[0],[0],[4.579999999999984],0,94,94,69,1,./IMAGES_ONLINE_EXPERIMENT/MALES_CFD-WM-036-018-A_ILL10_C5.png,./IMAGES_ONLINE_EXPERIMENT/MALES_CFD-WM-032-001-N_ILL10_C6.png,./IMAGES_ONLINE_EXPERIMENT/MALES_CFD-WM-010-004-HO_ILL10_C2.png,./IMAGES_ONLINE_EXPERIMENT/MALES_CFD-WM-023-015-F_ILL10_C3.png,./IMAGES_ONLINE_EXPERIMENT/MALES_CFD-WM-034-030-N_ILL10_C1.png,./IMAGES_ONLINE_EXPERIMENT/MALES_CFD-WM-014-002-N_ILL10_C4.png,./IMAGES_ONLINE_EXPERIMENT/MALES_CFD-WM-032-021-F_ILL10.png,,
,,,,,21156,001,F,19,2026-03-26_19h57.22.777,RUN_BETA,2026.1.0,Win32,59.52380952,441.3286,441.8279,441.8299,446.7276,[0.48703706529405383],[-0.35740746392144096],[1],[0],[0],[4.898499999999956],0,95,95,102,1,./IMAGES_ONLINE_EXPERIMENT/MALES_CFD-WM-009-006-HC_ILL10_C2.png,./IMAGES_ONLINE_EXPERIMENT/MALES_CFD-WM-039-028-F_ILL10_C4.png,./IMAGES_ONLINE_EXPERIMENT/MALES_CFD-WM-013-001-N_ILL10_C3.png,./IMAGES_ONLINE_EXPERIMENT/MALES_CFD-WM-011-006-HC_ILL10_C1.png,./IMAGES_ONLINE_EXPERIMENT/MALES_CFD-WM-003-006-HC_ILL10_C6.png,./IMAGES_ONLINE_EXPERIMENT/MALES_CFD-WM-017-003-HC_ILL10_C5.png,./IMAGES_ONLINE_EXPERIMENT/MALES_CFD-WM-003-008-A_ILL7.png,,
,,,,,21156,001,F,19,2026-03-26_19h57.22.777,RUN_BETA,2026.1.0,Win32,59.52380952,446.7282,447.2276,447.2285,452.1451,[0.06851857503255208],[-0.19074075486924913],[1],[0],[0],[4.9161000000015065],0,96,96,50,1,./IMAGES_ONLINE_EXPERIMENT/FEMALE_CFD-WF-033-031-A_ILL10_C1.png,./IMAGES_ONLINE_EXPERIMENT/FEMALE_CFD-WF-029-023-HC_ILL10_C4.png,./IMAGES_ONLINE_EXPERIMENT/FEMALE_CFD-WF-003-004-HO_ILL10_C6.png,./IMAGES_ONLINE_EXPERIMENT/FEMALE_CFD-WF-006-011-F_ILL10_C3.png,./IMAGES_ONLINE_EXPERIMENT/FEMALE_CFD-WF-022-017-N_ILL10_C5.png,./IMAGES_ONLINE_EXPERIMENT/FEMALE_CFD-WF-029-002-N_ILL10_C2.png,./IMAGES_ONLINE_EXPERIMENT/FEMALE_CFD-WF-003-007-HC_ILL10.png,,
,,,,,21156,001,F,19,2026-03-26_19h57.22.777,RUN_BETA,2026.1.0,Win32,59.52380952,452.1487,452.6446,452.6486,455.7115,[-0.03611111111111111],[0.15092591179741754],[1],[0],[0],[3.0630999999940514],0,97,97,118,1,./IMAGES_ONLINE_EXPERIMENT/MALES_CFD-WM-021-009-A_ILL7_C3.png,./IMAGES_ONLINE_EXPERIMENT/MALES_CFD-WM-034-027-F_ILL7_C2.png,./IMAGES_ONLINE_EXPERIMENT/MALES_CFD-WM-009-014-F_ILL7_C4.png,./IMAGES_ONLINE_EXPERIMENT/MALES_CFD-WM-029-029-HO_ILL7_C5.png,./IMAGES_ONLINE_EXPERIMENT/MALES_CFD-WM-034-032-HC_ILL7_C1.png,./IMAGES_ONLINE_EXPERIMENT/MALES_CFD-WM-039-004-HC_ILL7_C6.png,./IMAGES_ONLINE_EXPERIMENT/MALES_CFD-WM-039-028-F_ILL7.png,,
,,,,,21156,001,F,19,2026-03-26_19h57.22.777,RUN_BETA,2026.1.0,Win32,59.52380952,455.7151,456.2104,456.2148,481.5934,[-0.4870370229085286],[0.2361111111111111],[1],[0],[0],[25.37970000000297],0,98,98,75,1,./IMAGES_ONLINE_EXPERIMENT/FEMALE_CFD-WF-014-023-F_ILL10_C2.png,./IMAGES_ONLINE_EXPERIMENT/FEMALE_CFD-WF-028-023-N_ILL10_C6.png,./IMAGES_ONLINE_EXPERIMENT/FEMALE_CFD-WF-018-013-F_ILL10_C3.png,./IMAGES_ONLINE_EXPERIMENT/FEMALE_CFD-WF-010-008-HC_ILL10_C1.png,./IMAGES_ONLINE_EXPERIMENT/FEMALE_CFD-WF-009-006-HC_ILL10_C5.png,./IMAGES_ONLINE_EXPERIMENT/FEMALE_CFD-WF-021-018-A_ILL10_C4.png,./IMAGES_ONLINE_EXPERIMENT/FEMALE_CFD-WF-028-026-A_ILL10.png,,
,,,,,21156,001,F,19,2026-03-26_19h57.22.777,RUN_BETA,2026.1.0,Win32,59.52380952,481.5991,482.1027,482.1042,486.9266,[0.06851857503255208],[0.2879629558987088],[1],[0],[0],[4.822999999999979],0,99,99,19,1,./IMAGES_ONLINE_EXPERIMENT/MALES_CFD-WM-016-001-N_ILL10_C2.png,./IMAGES_ONLINE_EXPERIMENT/MALES_CFD-WM-037-060-A_ILL10_C3.png,./IMAGES_ONLINE_EXPERIMENT/MALES_CFD-WM-018-002-N_ILL10_C4.png,./IMAGES_ONLINE_EXPERIMENT/MALES_CFD-WM-034-035-HO_ILL10_C5.png,./IMAGES_ONLINE_EXPERIMENT/MALES_CFD-WM-033-007-HO_ILL10_C1.png,./IMAGES_ONLINE_EXPERIMENT/MALES_CFD-WM-011-011-A_ILL10_C6.png,./IMAGES_ONLINE_EXPERIMENT/MALES_CFD-WM-011-002-N_ILL9.png,,
,,,,,21156,001,F,19,2026-03-26_19h57.22.777,RUN_BETA,2026.1.0,Win32,59.52380952,486.9278,487.4263,487.4272,490.5779,[0.014814843071831597],[-0.17407408820258247],[1],[0],[0],[3.150100000001487],0,100,100,109,1,./IMAGES_ONLINE_EXPERIMENT/FEMALE_CFD-WF-033-031-A_ILL10_C5.png,./IMAGES_ONLINE_EXPERIMENT/FEMALE_CFD-WF-034-028-F_ILL10_C4.png,./IMAGES_ONLINE_EXPERIMENT/FEMALE_CFD-WF-012-002-N_ILL10_C1.png,./IMAGES_ONLINE_EXPERIMENT/FEMALE_CFD-WF-039-005-HO_ILL10_C2.png,./IMAGES_ONLINE_EXPERIMENT/FEMALE_CFD-WF-015-023-HC_ILL10_C3.png,./IMAGES_ONLINE_EXPERIMENT/FEMALE_CFD-WF-031-045-F_ILL10_C6.png,./IMAGES_ONLINE_EXPERIMENT/FEMALE_CFD-WF-031-009-HC_ILL9.png,,
,,,,,21156,001,F,19,2026-03-26_19h57.22.777,RUN_BETA,2026.1.0,Win32,59.52380952,490.5814,491.069,491.071,495.7774,[-0.4638888888888889],[-0.1574074215359158],[1],[0],[0],[4.706799999996974],0,101,101,70,1,./IMAGES_ONLINE_EXPERIMENT/MALES_CFD-WM-016-008-A_ILL7_C1.png,./IMAGES_ONLINE_EXPERIMENT/MALES_CFD-WM-029-009-HC_ILL7_C6.png,./IMAGES_ONLINE_EXPERIMENT/MALES_CFD-WM-036-047-F_ILL7_C3.png,./IMAGES_ONLINE_EXPERIMENT/MALES_CFD-WM-009-004-HO_ILL7_C4.png,./IMAGES_ONLINE_EXPERIMENT/MALES_CFD-WM-015-009-HC_ILL7_C2.png,./IMAGES_ONLINE_EXPERIMENT/MALES_CFD-WM-016-005-HC_ILL7_C5.png,./IMAGES_ONLINE_EXPERIMENT/MALES_CFD-WM-029-023-N_ILL7.png,,
,,,,,21156,001,F,19,2026-03-26_19h57.22.777,RUN_BETA,2026.1.0,Win32,59.52380952,495.7799,496.2767,496.2799,502.5444,[0.48333333333333334],[-0.3657407972547743],[1],[0],[0],[6.264399999998432],0,102,102,61,1,./IMAGES_ONLINE_EXPERIMENT/FEMALE_CFD-WF-008-003-HO_ILL10_C2.png,./IMAGES_ONLINE_EXPERIMENT/FEMALE_CFD-WF-035-019-F_ILL10_C1.png,./IMAGES_ONLINE_EXPERIMENT/FEMALE_CFD-WF-009-015-F_ILL10_C3.png,./IMAGES_ONLINE_EXPERIMENT/FEMALE_CFD-WF-029-026-A_ILL10_C4.png,./IMAGES_ONLINE_EXPERIMENT/FEMALE_CFD-WF-033-005-HO_ILL10_C6.png,./IMAGES_ONLINE_EXPERIMENT/FEMALE_CFD-WF-016-015-N_ILL10_C5.png,./IMAGES_ONLINE_EXPERIMENT/FEMALE_CFD-WF-033-002-N_ILL9.png,,
,,,,,21156,001,F,19,2026-03-26_19h57.22.777,RUN_BETA,2026.1.0,Win32,59.52380952,502.5467,503.0431,503.0463,509.8094,[-0.5037036895751953],[-0.28888888888888886],[1],[0],[0],[6.763399999998455],0,103,103,20,1,./IMAGES_ONLINE_EXPERIMENT/MALES_CFD-WM-040-033-F_ILL10_C3.png,./IMAGES_ONLINE_EXPERIMENT/MALES_CFD-WM-041-021-N_ILL10_C4.png,./IMAGES_ONLINE_EXPERIMENT/MALES_CFD-WM-019-013-A_ILL10_C1.png,./IMAGES_ONLINE_EXPERIMENT/MALES_CFD-WM-014-002-N_ILL10_C6.png,./IMAGES_ONLINE_EXPERIMENT/MALES_CFD-WM-036-037-HC_ILL10_C2.png,./IMAGES_ONLINE_EXPERIMENT/MALES_CFD-WM-009-009-A_ILL10_C5.png,./IMAGES_ONLINE_EXPERIMENT/MALES_CFD-WM-014-013-A_ILL10.png,,
,,,,,21156,001,F,19,2026-03-26_19h57.22.777,RUN_BETA,2026.1.0,Win32,59.52380952,509.8124,510.3102,510.3134,519.1599,[0.45925928751627604],[0.2685185114542643],[1],[0],[0],[8.846499999999992],0,104,104,73,1,./IMAGES_ONLINE_EXPERIMENT/FEMALE_CFD-WF-038-027-HC_ILL10_C6.png,./IMAGES_ONLINE_EXPERIMENT/FEMALE_CFD-WF-011-016-F_ILL10_C5.png,./IMAGES_ONLINE_EXPERIMENT/FEMALE_CFD-WF-027-021-HO_ILL10_C3.png,./IMAGES_ONLINE_EXPERIMENT/FEMALE_CFD-WF-019-032-HC_ILL10_C1.png,./IMAGES_ONLINE_EXPERIMENT/FEMALE_CFD-WF-011-002-N_ILL10_C4.png,./IMAGES_ONLINE_EXPERIMENT/FEMALE_CFD-WF-035-033-A_ILL10_C2.png,./IMAGES_ONLINE_EXPERIMENT/FEMALE_CFD-WF-038-030-A_ILL9.png,,
,,,,,21156,001,F,19,2026-03-26_19h57.22.777,RUN_BETA,2026.1.0,Win32,59.52380952,519.163,519.66,519.6629,530.6252,[0.5527777777777778],[0.275],[1],[0],[0],[10.962899999998513],0,105,105,8,1,./IMAGES_ONLINE_EXPERIMENT/MALES_CFD-WM-031-045-A_ILL10_C5.png,./IMAGES_ONLINE_EXPERIMENT/MALES_CFD-WM-014-004-HO_ILL10_C1.png,./IMAGES_ONLINE_EXPERIMENT/MALES_CFD-WM-039-018-N_ILL10_C2.png,./IMAGES_ONLINE_EXPERIMENT/MALES_CFD-WM-028-019-F_ILL10_C6.png,./IMAGES_ONLINE_EXPERIMENT/MALES_CFD-WM-041-021-N_ILL10_C4.png,./IMAGES_ONLINE_EXPERIMENT/MALES_CFD-WM-023-004-HO_ILL10_C3.png,./IMAGES_ONLINE_EXPERIMENT/MALES_CFD-WM-028-005-HC_ILL10.png,,
,,,,,21156,001,F,19,2026-03-26_19h57.22.777,RUN_BETA,2026.1.0,Win32,59.52380952,530.6256,531.1252,531.1268,539.4598,[-0.0064814249674479164],[0.23703702290852866],[1],[0],[0],[8.333100000001537],0,106,106,53,1,./IMAGES_ONLINE_EXPERIMENT/FEMALE_CFD-WF-030-003-HO_ILL9_C5.png,./IMAGES_ONLINE_EXPERIMENT/FEMALE_CFD-WF-039-005-HO_ILL9_C3.png,./IMAGES_ONLINE_EXPERIMENT/FEMALE_CFD-WF-027-007-HC_ILL9_C2.png,./IMAGES_ONLINE_EXPERIMENT/FEMALE_CFD-WF-001-027-F_ILL9_C4.png,./IMAGES_ONLINE_EXPERIMENT/FEMALE_CFD-WF-029-023-HC_ILL9_C6.png,./IMAGES_ONLINE_EXPERIMENT/FEMALE_CFD-WF-002-033-A_ILL9_C1.png,./IMAGES_ONLINE_EXPERIMENT/FEMALE_CFD-WF-029-002-N_ILL9.png,,
,,,,,21156,001,F,19,2026-03-26_19h57.22.777,RUN_BETA,2026.1.0,Win32,59.52380952,539.4623,539.959,539.9621,544.9082,[-0.0064814249674479164],[0.23703702290852866],[1],[0],[0],[4.946799999996983],0,107,107,111,1,./IMAGES_ONLINE_EXPERIMENT/FEMALE_CFD-WF-029-018-F_ILL10_C6.png,./IMAGES_ONLINE_EXPERIMENT/FEMALE_CFD-WF-031-027-N_ILL10_C5.png,./IMAGES_ONLINE_EXPERIMENT/FEMALE_CFD-WF-039-044-F_ILL10_C2.png,./IMAGES_ONLINE_EXPERIMENT/FEMALE_CFD-WF-025-031-F_ILL10_C3.png,./IMAGES_ONLINE_EXPERIMENT/FEMALE_CFD-WF-007-029-A_ILL10_C4.png,./IMAGES_ONLINE_EXPERIMENT/FEMALE_CFD-WF-020-023-HO_ILL10_C1.png,./IMAGES_ONLINE_EXPERIMENT/FEMALE_CFD-WF-029-026-A_ILL10.png,,
,,,,,21156,001,F,19,2026-03-26_19h57.22.777,RUN_BETA,2026.1.0,Win32,59.52380952,544.9087,545.4085,545.4101,547.1748,[-0.0064814249674479164],[0.23703702290852866],[1],[0],[0],[1.7653999999985217],0,108,108,68,1,./IMAGES_ONLINE_EXPERIMENT/MALES_CFD-WM-033-025-N_ILL10_C2.png,./IMAGES_ONLINE_EXPERIMENT/MALES_CFD-WM-039-008-HO_ILL10_C6.png,./IMAGES_ONLINE_EXPERIMENT/MALES_CFD-WM-020-005-HC_ILL10_C5.png,./IMAGES_ONLINE_EXPERIMENT/MALES_CFD-WM-024-010-A_ILL10_C1.png,./IMAGES_ONLINE_EXPERIMENT/MALES_CFD-WM-020-012-F_ILL10_C3.png,./IMAGES_ONLINE_EXPERIMENT/MALES_CFD-WM-012-005-HO_ILL10_C4.png,./IMAGES_ONLINE_EXPERIMENT/MALES_CFD-WM-039-028-F_ILL10.png,,
,,,,,21156,001,F,19,2026-03-26_19h57.22.777,RUN_BETA,2026.1.0,Win32,59.52380952,547.1754,547.6749,547.6766,551.6746,[0.48518524169921873],[-0.16111111111111112],[1],[0],[0],[3.9985000000000355],0,109,109,29,1,./IMAGES_ONLINE_EXPERIMENT/FEMALE_CFD-WF-010-006-HO_ILL9_C1.png,./IMAGES_ONLINE_EXPERIMENT/FEMALE_CFD-WF-012-012-A_ILL9_C4.png,./IMAGES_ONLINE_EXPERIMENT/FEMALE_CFD-WF-036-023-N_ILL9_C2.png,./IMAGES_ONLINE_EXPERIMENT/FEMALE_CFD-WF-005-010-N_ILL9_C6.png,./IMAGES_ONLINE_EXPERIMENT/FEMALE_CFD-WF-026-017-HO_ILL9_C3.png,./IMAGES_ONLINE_EXPERIMENT/FEMALE_CFD-WF-028-023-N_ILL9_C5.png,./IMAGES_ONLINE_EXPERIMENT/FEMALE_CFD-WF-005-013-HO_ILL9.png,,
,,,,,21156,001,F,19,2026-03-26_19h57.22.777,RUN_BETA,2026.1.0,Win32,59.52380952,551.6752,552.1746,552.1756,554.2757,[0.5120370652940538],[0.12314813401963975],[1],[0],[0],[2.1001000000014756],0,110,110,93,1,./IMAGES_ONLINE_EXPERIMENT/MALES_CFD-WM-003-002-N_ILL10_C1.png,./IMAGES_ONLINE_EXPERIMENT/MALES_CFD-WM-033-014-A_ILL10_C5.png,./IMAGES_ONLINE_EXPERIMENT/MALES_CFD-WM-026-013-F_ILL10_C6.png,./IMAGES_ONLINE_EXPERIMENT/MALES_CFD-WM-023-015-F_ILL10_C2.png,./IMAGES_ONLINE_EXPERIMENT/MALES_CFD-WM-006-010-HO_ILL10_C3.png,./IMAGES_ONLINE_EXPERIMENT/MALES_CFD-WM-023-012-A_ILL10_C4.png,./IMAGES_ONLINE_EXPERIMENT/MALES_CFD-WM-026-004-HC_ILL10.png,,
,,,,,21156,001,F,19,2026-03-26_19h57.22.777,RUN_BETA,2026.1.0,Win32,59.52380952,554.278,554.7753,554.7786,559.3576,[0.4583333333333333],[-0.23333333333333334],[1],[0],[0],[4.580199999995557],0,111,111,77,1,./IMAGES_ONLINE_EXPERIMENT/FEMALE_CFD-WF-023-003-N_ILL9_C4.png,./IMAGES_ONLINE_EXPERIMENT/FEMALE_CFD-WF-031-027-N_ILL9_C6.png,./IMAGES_ONLINE_EXPERIMENT/FEMALE_CFD-WF-036-030-HC_ILL9_C2.png,./IMAGES_ONLINE_EXPERIMENT/FEMALE_CFD-WF-007-001-N_ILL9_C1.png,./IMAGES_ONLINE_EXPERIMENT/FEMALE_CFD-WF-006-011-F_ILL9_C5.png,./IMAGES_ONLINE_EXPERIMENT/FEMALE_CFD-WF-018-018-HO_ILL9_C3.png,./IMAGES_ONLINE_EXPERIMENT/FEMALE_CFD-WF-031-009-HC_ILL9.png,,
,,,,,21156,001,F,19,2026-03-26_19h57.22.777,RUN_BETA,2026.1.0,Win32,59.52380952,559.3581,559.858,559.8596,562.9588,[-0.4814814673529731],[-0.2777777777777778],[1],[0],[0],[3.0995000000000346],0,112,112,100,1,./IMAGES_ONLINE_EXPERIMENT/FEMALE_CFD-WF-022-007-HC_ILL7_C5.png,./IMAGES_ONLINE_EXPERIMENT/FEMALE_CFD-WF-020-027-F_ILL7_C2.png,./IMAGES_ONLINE_EXPERIMENT/FEMALE_CFD-WF-033-031-A_ILL7_C1.png,./IMAGES_ONLINE_EXPERIMENT/FEMALE_CFD-WF-017-016-HC_ILL7_C4.png,./IMAGES_ONLINE_EXPERIMENT/FEMALE_CFD-WF-019-035-HO_ILL7_C6.png,./IMAGES_ONLINE_EXPERIMENT/FEMALE_CFD-WF-025-031-F_ILL7_C3.png,./IMAGES_ONLINE_EXPERIMENT/FEMALE_CFD-WF-019-024-F_ILL7.png,,
,,,,,21156,001,F,19,2026-03-26_19h57.22.777,RUN_BETA,2026.1.0,Win32,59.52380952,562.9614,563.4581,563.4615,569.2743,[-0.4814814673529731],[-0.2777777777777778],[1],[0],[0],[5.813400000006027],0,113,113,86,1,./IMAGES_ONLINE_EXPERIMENT/FEMALE_CFD-WF-039-005-HO_ILL10_C2.png,./IMAGES_ONLINE_EXPERIMENT/FEMALE_CFD-WF-038-023-HO_ILL10_C1.png,./IMAGES_ONLINE_EXPERIMENT/FEMALE_CFD-WF-039-032-A_ILL10_C4.png,./IMAGES_ONLINE_EXPERIMENT/FEMALE_CFD-WF-018-018-HO_ILL10_C3.png,./IMAGES_ONLINE_EXPERIMENT/FEMALE_CFD-WF-016-021-A_ILL10_C6.png,./IMAGES_ONLINE_EXPERIMENT/FEMALE_CFD-WF-015-022-HO_ILL10_C5.png,./IMAGES_ONLINE_EXPERIMENT/FEMALE_CFD-WF-016-024-F_ILL10.png,,
,,,,,21156,001,F,19,2026-03-26_19h57.22.777,RUN_BETA,2026.1.0,Win32,59.52380952,569.275,569.7743,569.7762,577.4739,[-0.6055555555555555],[-0.26944444444444443],[1],[0],[0],[7.69860000000142],0,114,114,83,1,./IMAGES_ONLINE_EXPERIMENT/MALES_CFD-WM-032-004-HO_ILL9_C3.png,./IMAGES_ONLINE_EXPERIMENT/MALES_CFD-WM-028-005-HC_ILL9_C5.png,./IMAGES_ONLINE_EXPERIMENT/MALES_CFD-WM-016-005-HC_ILL9_C4.png,./IMAGES_ONLINE_EXPERIMENT/MALES_CFD-WM-010-004-HO_ILL9_C1.png,./IMAGES_ONLINE_EXPERIMENT/MALES_CFD-WM-019-006-HC_ILL9_C6.png,./IMAGES_ONLINE_EXPERIMENT/MALES_CFD-WM-034-030-N_ILL9_C2.png,./IMAGES_ONLINE_EXPERIMENT/MALES_CFD-WM-019-009-HO_ILL9.png,,
,,,,,21156,001,F,19,2026-03-26_19h57.22.777,RUN_BETA,2026.1.0,Win32,59.52380952,577.4749,577.974,577.9754,581.9913,[0.5046296861436632],[0.24722222222222223],[1],[0],[0],[4.016199999995592],0,115,115,72,1,./IMAGES_ONLINE_EXPERIMENT/FEMALE_CFD-WF-015-006-N_ILL10_C5.png,./IMAGES_ONLINE_EXPERIMENT/FEMALE_CFD-WF-001-009-HO_ILL10_C4.png,./IMAGES_ONLINE_EXPERIMENT/FEMALE_CFD-WF-024-031-F_ILL10_C6.png,./IMAGES_ONLINE_EXPERIMENT/FEMALE_CFD-WF-007-026-F_ILL10_C3.png,./IMAGES_ONLINE_EXPERIMENT/FEMALE_CFD-WF-037-029-N_ILL10_C2.png,./IMAGES_ONLINE_EXPERIMENT/FEMALE_CFD-WF-023-013-A_ILL10_C1.png,./IMAGES_ONLINE_EXPERIMENT/FEMALE_CFD-WF-024-010-HC_ILL7.png,,
,,,,,21156,001,F,19,2026-03-26_19h57.22.777,RUN_BETA,2026.1.0,Win32,59.52380952,581.994,582.4915,582.4945,598.1575,[0.5212963528103298],[0.22314813401963976],[1],[0],[0],[15.663399999998433],0,116,116,25,1,./IMAGES_ONLINE_EXPERIMENT/FEMALE_CFD-WF-007-003-HO_ILL10_C6.png,./IMAGES_ONLINE_EXPERIMENT/FEMALE_CFD-WF-003-004-HO_ILL10_C5.png,./IMAGES_ONLINE_EXPERIMENT/FEMALE_CFD-WF-003-003-N_ILL10_C1.png,./IMAGES_ONLINE_EXPERIMENT/FEMALE_CFD-WF-030-031-HC_ILL10_C4.png,./IMAGES_ONLINE_EXPERIMENT/FEMALE_CFD-WF-031-009-HC_ILL10_C3.png,./IMAGES_ONLINE_EXPERIMENT/FEMALE_CFD-WF-018-018-HO_ILL10_C2.png,./IMAGES_ONLINE_EXPERIMENT/FEMALE_CFD-WF-007-029-A_ILL9.png,,
,,,,,21156,001,F,19,2026-03-26_19h57.22.777,RUN_BETA,2026.1.0,Win32,59.52380952,598.1603,598.657,598.6617,603.223,[0.05370373196072049],[0.3212962892320421],[1],[0],[0],[4.562000000000012],0,117,117,47,1,./IMAGES_ONLINE_EXPERIMENT/MALES_CFD-WM-012-026-F_ILL9_C3.png,./IMAGES_ONLINE_EXPERIMENT/MALES_CFD-WM-001-007-HC_ILL9_C4.png,./IMAGES_ONLINE_EXPERIMENT/MALES_CFD-WM-013-015-A_ILL9_C6.png,./IMAGES_ONLINE_EXPERIMENT/MALES_CFD-WM-022-008-A_ILL9_C2.png,./IMAGES_ONLINE_EXPERIMENT/MALES_CFD-WM-006-013-HC_ILL9_C1.png,./IMAGES_ONLINE_EXPERIMENT/MALES_CFD-WM-006-010-HO_ILL9_C5.png,./IMAGES_ONLINE_EXPERIMENT/MALES_CFD-WM-013-019-F_ILL9.png,,
,,,,,21156,001,F,19,2026-03-26_19h57.22.777,RUN_BETA,2026.1.0,Win32,59.52380952,603.2269,603.7239,603.7281,607.9235,[-0.4777777777777778],[0.15555555555555556],[1],[0],[0],[4.195300000004522],0,118,118,6,1,./IMAGES_ONLINE_EXPERIMENT/MALES_CFD-WM-041-023-HC_ILL10_C6.png,./IMAGES_ONLINE_EXPERIMENT/MALES_CFD-WM-029-020-F_ILL10_C4.png,./IMAGES_ONLINE_EXPERIMENT/MALES_CFD-WM-037-025-N_ILL10_C2.png,./IMAGES_ONLINE_EXPERIMENT/MALES_CFD-WM-009-002-N_ILL10_C1.png,./IMAGES_ONLINE_EXPERIMENT/MALES_CFD-WM-016-008-A_ILL10_C3.png,./IMAGES_ONLINE_EXPERIMENT/MALES_CFD-WM-032-001-N_ILL10_C5.png,./IMAGES_ONLINE_EXPERIMENT/MALES_CFD-WM-041-009-A_ILL7.png,,
,,,,,21156,001,F,19,2026-03-26_19h57.22.777,RUN_BETA,2026.1.0,Win32,59.52380952,607.9273,608.4232,608.4281,611.0901,[-0.03611111111111111],[-0.26666666666666666],[1],[0],[0],[2.661899999998468],0,119,119,119,1,./IMAGES_ONLINE_EXPERIMENT/MALES_CFD-WM-006-002-N_ILL9_C1.png,./IMAGES_ONLINE_EXPERIMENT/MALES_CFD-WM-033-025-N_ILL9_C5.png,./IMAGES_ONLINE_EXPERIMENT/MALES_CFD-WM-024-015-N_ILL9_C4.png,./IMAGES_ONLINE_EXPERIMENT/MALES_CFD-WM-010-016-A_ILL9_C3.png,./IMAGES_ONLINE_EXPERIMENT/MALES_CFD-WM-002-007-HO_ILL9_C6.png,./IMAGES_ONLINE_EXPERIMENT/MALES_CFD-WM-034-032-HC_ILL9_C2.png,./IMAGES_ONLINE_EXPERIMENT/MALES_CFD-WM-002-008-HC_ILL9.png,,
