instructions.started,instructions.stopped,key_resp.keys,key_resp.rt,key_resp.duration,participant,session,"please enter F(female), M(male), O(other)",please enter your age,date,expName,psychopyVersion,OS,frameRate,fixation.started,fixation.stopped,trial.started,trial.stopped,mouse.x,mouse.y,mouse.leftButton,mouse.midButton,mouse.rightButton,mouse.time,trials.thisRepN,trials.thisTrialN,trials.thisN,trials.thisIndex,trials.ran,COMP1,COMP2,COMP3,COMP4,COMP5,COMP6,TEST_FACE,ILLUMINANT_TEST,ILLUMINANT_LINEUP
3.544,4.743,space,1.091,,21205,001,F,20,2026-03-24_16h03.41.307,RUN_BETA,2026.1.0,Win32,59.95203837,,,,,,,,,,,,,,,,,,,,,,,,
,,,,,21205,001,F,20,2026-03-24_16h03.41.307,RUN_BETA,2026.1.0,Win32,59.95203837,4.77,5.242,5.245,6.8,[0.008333347461841724],[-0.23888891714590568],[1],[0],[0],[1.5549999999999997],0,0,0,47,1,./IMAGES_ONLINE_EXPERIMENT/MALES_CFD-WM-012-026-F_ILL9_C3.png,./IMAGES_ONLINE_EXPERIMENT/MALES_CFD-WM-001-007-HC_ILL9_C4.png,./IMAGES_ONLINE_EXPERIMENT/MALES_CFD-WM-013-015-A_ILL9_C6.png,./IMAGES_ONLINE_EXPERIMENT/MALES_CFD-WM-022-008-A_ILL9_C2.png,./IMAGES_ONLINE_EXPERIMENT/MALES_CFD-WM-006-013-HC_ILL9_C1.png,./IMAGES_ONLINE_EXPERIMENT/MALES_CFD-WM-006-010-HO_ILL9_C5.png,./IMAGES_ONLINE_EXPERIMENT/MALES_CFD-WM-013-019-F_ILL9.png,,
,,,,,21205,001,F,20,2026-03-24_16h03.41.307,RUN_BETA,2026.1.0,Win32,59.95203837,6.8,7.293,7.293,8.592,[0.008333347461841724],[-0.23888891714590568],[1],[0],[0],[1.2989999999999995],0,1,1,113,1,./IMAGES_ONLINE_EXPERIMENT/FEMALE_CFD-WF-010-014-A_ILL9_C1.png,./IMAGES_ONLINE_EXPERIMENT/FEMALE_CFD-WF-014-002-N_ILL9_C5.png,./IMAGES_ONLINE_EXPERIMENT/FEMALE_CFD-WF-025-031-F_ILL9_C4.png,./IMAGES_ONLINE_EXPERIMENT/FEMALE_CFD-WF-033-041-HC_ILL9_C2.png,./IMAGES_ONLINE_EXPERIMENT/FEMALE_CFD-WF-036-026-HO_ILL9_C6.png,./IMAGES_ONLINE_EXPERIMENT/FEMALE_CFD-WF-022-017-N_ILL9_C3.png,./IMAGES_ONLINE_EXPERIMENT/FEMALE_CFD-WF-036-030-HC_ILL9.png,,
,,,,,21205,001,F,20,2026-03-24_16h03.41.307,RUN_BETA,2026.1.0,Win32,59.95203837,8.593,9.093,9.093,13.443,[0.5009259824399594],[0.23981481128268772],[1],[0],[0],[4.350000000000001],0,2,2,63,1,./IMAGES_ONLINE_EXPERIMENT/FEMALE_CFD-WF-028-025-HC_ILL10_C2.png,./IMAGES_ONLINE_EXPERIMENT/FEMALE_CFD-WF-025-006-HO_ILL10_C3.png,./IMAGES_ONLINE_EXPERIMENT/FEMALE_CFD-WF-025-031-F_ILL10_C1.png,./IMAGES_ONLINE_EXPERIMENT/FEMALE_CFD-WF-025-023-HC_ILL10_C4.png,./IMAGES_ONLINE_EXPERIMENT/FEMALE_CFD-WF-012-007-HO_ILL10_C6.png,./IMAGES_ONLINE_EXPERIMENT/FEMALE_CFD-WF-016-021-A_ILL10_C5.png,./IMAGES_ONLINE_EXPERIMENT/FEMALE_CFD-WF-012-012-A_ILL10.png,,
,,,,,21205,001,F,20,2026-03-24_16h03.41.307,RUN_BETA,2026.1.0,Win32,59.95203837,13.443,13.942,13.944,17.809,[0.49814817640516496],[0.23981481128268772],[1],[0],[0],[3.8659999999999997],0,3,3,8,1,./IMAGES_ONLINE_EXPERIMENT/MALES_CFD-WM-031-045-A_ILL10_C5.png,./IMAGES_ONLINE_EXPERIMENT/MALES_CFD-WM-014-004-HO_ILL10_C1.png,./IMAGES_ONLINE_EXPERIMENT/MALES_CFD-WM-039-018-N_ILL10_C2.png,./IMAGES_ONLINE_EXPERIMENT/MALES_CFD-WM-028-019-F_ILL10_C6.png,./IMAGES_ONLINE_EXPERIMENT/MALES_CFD-WM-041-021-N_ILL10_C4.png,./IMAGES_ONLINE_EXPERIMENT/MALES_CFD-WM-023-004-HO_ILL10_C3.png,./IMAGES_ONLINE_EXPERIMENT/MALES_CFD-WM-028-005-HC_ILL10.png,,
,,,,,21205,001,F,20,2026-03-24_16h03.41.307,RUN_BETA,2026.1.0,Win32,59.95203837,17.81,18.31,18.311,22.676,[0.023148148148148147],[0.29074073720861365],[1],[0],[0],[4.366],0,4,4,46,1,./IMAGES_ONLINE_EXPERIMENT/MALES_CFD-WM-038-018-F_ILL7_C2.png,./IMAGES_ONLINE_EXPERIMENT/MALES_CFD-WM-002-009-N_ILL7_C4.png,./IMAGES_ONLINE_EXPERIMENT/MALES_CFD-WM-013-006-HO_ILL7_C6.png,./IMAGES_ONLINE_EXPERIMENT/MALES_CFD-WM-025-018-HC_ILL7_C3.png,./IMAGES_ONLINE_EXPERIMENT/MALES_CFD-WM-040-022-N_ILL7_C5.png,./IMAGES_ONLINE_EXPERIMENT/MALES_CFD-WM-010-020-F_ILL7_C1.png,./IMAGES_ONLINE_EXPERIMENT/MALES_CFD-WM-013-015-A_ILL7.png,,
,,,,,21205,001,F,20,2026-03-24_16h03.41.307,RUN_BETA,2026.1.0,Win32,59.95203837,22.677,23.176,23.178,29.226,[-0.4361110969826027],[-0.1916666384096499],[1],[0],[0],[6.0489999999999995],0,5,5,16,1,./IMAGES_ONLINE_EXPERIMENT/FEMALE_CFD-WF-001-027-F_ILL7_C6.png,./IMAGES_ONLINE_EXPERIMENT/FEMALE_CFD-WF-036-026-HO_ILL7_C2.png,./IMAGES_ONLINE_EXPERIMENT/FEMALE_CFD-WF-013-003-N_ILL7_C5.png,./IMAGES_ONLINE_EXPERIMENT/FEMALE_CFD-WF-019-032-HC_ILL7_C3.png,./IMAGES_ONLINE_EXPERIMENT/FEMALE_CFD-WF-005-016-HC_ILL7_C1.png,./IMAGES_ONLINE_EXPERIMENT/FEMALE_CFD-WF-020-027-F_ILL7_C4.png,./IMAGES_ONLINE_EXPERIMENT/FEMALE_CFD-WF-001-003-N_ILL7.png,,
,,,,,21205,001,F,20,2026-03-24_16h03.41.307,RUN_BETA,2026.1.0,Win32,59.95203837,29.227,29.727,29.728,36.143,[0.05092592592592592],[0.26203702997278283],[1],[0],[0],[6.416000000000011],0,6,6,18,1,./IMAGES_ONLINE_EXPERIMENT/MALES_CFD-WM-022-003-HC_ILL10_C5.png,./IMAGES_ONLINE_EXPERIMENT/MALES_CFD-WM-014-004-HO_ILL10_C4.png,./IMAGES_ONLINE_EXPERIMENT/MALES_CFD-WM-038-005-HO_ILL10_C3.png,./IMAGES_ONLINE_EXPERIMENT/MALES_CFD-WM-037-033-HC_ILL10_C2.png,./IMAGES_ONLINE_EXPERIMENT/MALES_CFD-WM-019-009-HO_ILL10_C1.png,./IMAGES_ONLINE_EXPERIMENT/MALES_CFD-WM-021-006-HC_ILL10_C6.png,./IMAGES_ONLINE_EXPERIMENT/MALES_CFD-WM-021-009-A_ILL7.png,,
,,,,,21205,001,F,20,2026-03-24_16h03.41.307,RUN_BETA,2026.1.0,Win32,59.95203837,36.144,36.643,36.644,41.927,[-0.47685185185185186],[0.2611111181753653],[1],[0],[0],[5.282000000000011],0,7,7,87,1,./IMAGES_ONLINE_EXPERIMENT/FEMALE_CFD-WF-019-024-F_ILL10_C3.png,./IMAGES_ONLINE_EXPERIMENT/FEMALE_CFD-WF-024-010-HC_ILL10_C4.png,./IMAGES_ONLINE_EXPERIMENT/FEMALE_CFD-WF-001-010-HC_ILL10_C1.png,./IMAGES_ONLINE_EXPERIMENT/FEMALE_CFD-WF-029-026-A_ILL10_C5.png,./IMAGES_ONLINE_EXPERIMENT/FEMALE_CFD-WF-034-006-N_ILL10_C6.png,./IMAGES_ONLINE_EXPERIMENT/FEMALE_CFD-WF-022-023-A_ILL10_C2.png,./IMAGES_ONLINE_EXPERIMENT/FEMALE_CFD-WF-034-016-A_ILL10.png,,
,,,,,21205,001,F,20,2026-03-24_16h03.41.307,RUN_BETA,2026.1.0,Win32,59.95203837,41.927,42.426,42.427,46.444,[-0.47685185185185186],[0.2611111181753653],[1],[0],[0],[4.0179999999999865],0,8,8,115,1,./IMAGES_ONLINE_EXPERIMENT/MALES_CFD-WM-024-007-HC_ILL10_C4.png,./IMAGES_ONLINE_EXPERIMENT/MALES_CFD-WM-031-004-HO_ILL10_C1.png,./IMAGES_ONLINE_EXPERIMENT/MALES_CFD-WM-032-004-HO_ILL10_C2.png,./IMAGES_ONLINE_EXPERIMENT/MALES_CFD-WM-017-011-A_ILL10_C6.png,./IMAGES_ONLINE_EXPERIMENT/MALES_CFD-WM-021-006-HC_ILL10_C5.png,./IMAGES_ONLINE_EXPERIMENT/MALES_CFD-WM-009-014-F_ILL10_C3.png,./IMAGES_ONLINE_EXPERIMENT/MALES_CFD-WM-017-002-N_ILL9.png,,
,,,,,21205,001,F,20,2026-03-24_16h03.41.307,RUN_BETA,2026.1.0,Win32,59.95203837,46.444,46.943,46.944,52.094,[0.41203703703703703],[0.22592592239379883],[1],[0],[0],[5.149000000000001],0,9,9,3,1,./IMAGES_ONLINE_EXPERIMENT/FEMALE_CFD-WF-039-044-F_ILL10_C3.png,./IMAGES_ONLINE_EXPERIMENT/FEMALE_CFD-WF-020-002-N_ILL10_C1.png,./IMAGES_ONLINE_EXPERIMENT/FEMALE_CFD-WF-002-033-A_ILL10_C2.png,./IMAGES_ONLINE_EXPERIMENT/FEMALE_CFD-WF-034-006-N_ILL10_C6.png,./IMAGES_ONLINE_EXPERIMENT/FEMALE_CFD-WF-039-032-A_ILL10_C5.png,./IMAGES_ONLINE_EXPERIMENT/FEMALE_CFD-WF-007-029-A_ILL10_C4.png,./IMAGES_ONLINE_EXPERIMENT/FEMALE_CFD-WF-034-033-HO_ILL10.png,,
,,,,,21205,001,F,20,2026-03-24_16h03.41.307,RUN_BETA,2026.1.0,Win32,59.95203837,52.096,52.593,52.599,59.645,[0.5629629912199797],[-0.22407404581705728],[1],[0],[0],[7.046999999999997],0,10,10,111,1,./IMAGES_ONLINE_EXPERIMENT/FEMALE_CFD-WF-029-018-F_ILL10_C6.png,./IMAGES_ONLINE_EXPERIMENT/FEMALE_CFD-WF-031-027-N_ILL10_C5.png,./IMAGES_ONLINE_EXPERIMENT/FEMALE_CFD-WF-039-044-F_ILL10_C2.png,./IMAGES_ONLINE_EXPERIMENT/FEMALE_CFD-WF-025-031-F_ILL10_C3.png,./IMAGES_ONLINE_EXPERIMENT/FEMALE_CFD-WF-007-029-A_ILL10_C4.png,./IMAGES_ONLINE_EXPERIMENT/FEMALE_CFD-WF-020-023-HO_ILL10_C1.png,./IMAGES_ONLINE_EXPERIMENT/FEMALE_CFD-WF-029-026-A_ILL10.png,,
,,,,,21205,001,F,20,2026-03-24_16h03.41.307,RUN_BETA,2026.1.0,Win32,59.95203837,59.645,60.143,60.146,66.961,[0.5944444161874277],[0.14074074780499493],[1],[0],[0],[6.8160000000000025],0,11,11,15,1,./IMAGES_ONLINE_EXPERIMENT/FEMALE_CFD-WF-017-015-HO_ILL10_C4.png,./IMAGES_ONLINE_EXPERIMENT/FEMALE_CFD-WF-018-013-F_ILL10_C2.png,./IMAGES_ONLINE_EXPERIMENT/FEMALE_CFD-WF-031-045-F_ILL10_C5.png,./IMAGES_ONLINE_EXPERIMENT/FEMALE_CFD-WF-036-030-HC_ILL10_C6.png,./IMAGES_ONLINE_EXPERIMENT/FEMALE_CFD-WF-015-022-HO_ILL10_C1.png,./IMAGES_ONLINE_EXPERIMENT/FEMALE_CFD-WF-005-022-A_ILL10_C3.png,./IMAGES_ONLINE_EXPERIMENT/FEMALE_CFD-WF-036-040-F_ILL10.png,,
,,,,,21205,001,F,20,2026-03-24_16h03.41.307,RUN_BETA,2026.1.0,Win32,59.95203837,66.962,67.461,67.463,69.931,[0.10740739327889902],[0.2388888818246347],[1],[0],[0],[2.4669999999999987],0,12,12,78,1,./IMAGES_ONLINE_EXPERIMENT/MALES_CFD-WM-024-019-F_ILL10_C1.png,./IMAGES_ONLINE_EXPERIMENT/MALES_CFD-WM-028-005-HC_ILL10_C4.png,./IMAGES_ONLINE_EXPERIMENT/MALES_CFD-WM-039-018-N_ILL10_C5.png,./IMAGES_ONLINE_EXPERIMENT/MALES_CFD-WM-025-022-F_ILL10_C6.png,./IMAGES_ONLINE_EXPERIMENT/MALES_CFD-WM-003-003-HO_ILL10_C3.png,./IMAGES_ONLINE_EXPERIMENT/MALES_CFD-WM-001-011-HO_ILL10_C2.png,./IMAGES_ONLINE_EXPERIMENT/MALES_CFD-WM-025-008-A_ILL7.png,,
,,,,,21205,001,F,20,2026-03-24_16h03.41.307,RUN_BETA,2026.1.0,Win32,59.95203837,69.932,70.428,70.429,76.311,[0.027777777777777776],[-0.2138888747603805],[1],[0],[0],[5.881999999999991],0,13,13,108,1,./IMAGES_ONLINE_EXPERIMENT/FEMALE_CFD-WF-010-008-HC_ILL10_C5.png,./IMAGES_ONLINE_EXPERIMENT/FEMALE_CFD-WF-019-015-A_ILL10_C2.png,./IMAGES_ONLINE_EXPERIMENT/FEMALE_CFD-WF-008-016-F_ILL10_C1.png,./IMAGES_ONLINE_EXPERIMENT/FEMALE_CFD-WF-034-016-A_ILL10_C4.png,./IMAGES_ONLINE_EXPERIMENT/FEMALE_CFD-WF-001-027-F_ILL10_C3.png,./IMAGES_ONLINE_EXPERIMENT/FEMALE_CFD-WF-025-019-N_ILL10_C6.png,./IMAGES_ONLINE_EXPERIMENT/FEMALE_CFD-WF-025-015-A_ILL7.png,,
,,,,,21205,001,F,20,2026-03-24_16h03.41.307,RUN_BETA,2026.1.0,Win32,59.95203837,76.312,76.811,76.814,88.679,[0.45740735089337387],[-0.2583333474618417],[1],[0],[0],[11.865000000000009],0,14,14,11,1,./IMAGES_ONLINE_EXPERIMENT/MALES_CFD-WM-031-045-A_ILL9_C4.png,./IMAGES_ONLINE_EXPERIMENT/MALES_CFD-WM-016-005-HC_ILL9_C3.png,./IMAGES_ONLINE_EXPERIMENT/MALES_CFD-WM-026-006-HO_ILL9_C6.png,./IMAGES_ONLINE_EXPERIMENT/MALES_CFD-WM-040-022-N_ILL9_C5.png,./IMAGES_ONLINE_EXPERIMENT/MALES_CFD-WM-041-009-A_ILL9_C1.png,./IMAGES_ONLINE_EXPERIMENT/MALES_CFD-WM-031-038-HC_ILL9_C2.png,./IMAGES_ONLINE_EXPERIMENT/MALES_CFD-WM-026-019-A_ILL9.png,,
,,,,,21205,001,F,20,2026-03-24_16h03.41.307,RUN_BETA,2026.1.0,Win32,59.95203837,88.683,89.178,89.185,93.878,[0.4990740175600405],[0.28796296649509007],[1],[0],[0],[4.696000000000012],0,15,15,58,1,./IMAGES_ONLINE_EXPERIMENT/MALES_CFD-WM-006-022-A_ILL7_C3.png,./IMAGES_ONLINE_EXPERIMENT/MALES_CFD-WM-016-002-HO_ILL7_C4.png,./IMAGES_ONLINE_EXPERIMENT/MALES_CFD-WM-029-014-A_ILL7_C2.png,./IMAGES_ONLINE_EXPERIMENT/MALES_CFD-WM-020-008-A_ILL7_C5.png,./IMAGES_ONLINE_EXPERIMENT/MALES_CFD-WM-035-036-HC_ILL7_C1.png,./IMAGES_ONLINE_EXPERIMENT/MALES_CFD-WM-036-047-F_ILL7_C6.png,./IMAGES_ONLINE_EXPERIMENT/MALES_CFD-WM-036-031-N_ILL7.png,,
,,,,,21205,001,F,20,2026-03-24_16h03.41.307,RUN_BETA,2026.1.0,Win32,59.95203837,93.879,94.378,94.382,98.495,[-0.4185185255827727],[0.29537036683824325],[1],[0],[0],[4.114999999999995],0,16,16,89,1,./IMAGES_ONLINE_EXPERIMENT/FEMALE_CFD-WF-007-003-HO_ILL9_C4.png,./IMAGES_ONLINE_EXPERIMENT/FEMALE_CFD-WF-023-020-HO_ILL9_C2.png,./IMAGES_ONLINE_EXPERIMENT/FEMALE_CFD-WF-029-018-F_ILL9_C5.png,./IMAGES_ONLINE_EXPERIMENT/FEMALE_CFD-WF-015-014-A_ILL9_C6.png,./IMAGES_ONLINE_EXPERIMENT/FEMALE_CFD-WF-011-006-HC_ILL9_C1.png,./IMAGES_ONLINE_EXPERIMENT/FEMALE_CFD-WF-001-009-HO_ILL9_C3.png,./IMAGES_ONLINE_EXPERIMENT/FEMALE_CFD-WF-015-022-HO_ILL9.png,,
,,,,,21205,001,F,20,2026-03-24_16h03.41.307,RUN_BETA,2026.1.0,Win32,59.95203837,98.495,98.995,98.996,106.362,[-0.4537037037037037],[-0.20462961550112124],[1],[0],[0],[7.366000000000014],0,17,17,30,1,./IMAGES_ONLINE_EXPERIMENT/MALES_CFD-WM-034-032-HC_ILL10_C1.png,./IMAGES_ONLINE_EXPERIMENT/MALES_CFD-WM-002-009-N_ILL10_C2.png,./IMAGES_ONLINE_EXPERIMENT/MALES_CFD-WM-025-022-F_ILL10_C4.png,./IMAGES_ONLINE_EXPERIMENT/MALES_CFD-WM-035-032-N_ILL10_C6.png,./IMAGES_ONLINE_EXPERIMENT/MALES_CFD-WM-014-008-HC_ILL10_C3.png,./IMAGES_ONLINE_EXPERIMENT/MALES_CFD-WM-014-002-N_ILL10_C5.png,./IMAGES_ONLINE_EXPERIMENT/MALES_CFD-WM-035-033-HO_ILL7.png,,
,,,,,21205,001,F,20,2026-03-24_16h03.41.307,RUN_BETA,2026.1.0,Win32,59.95203837,106.363,106.863,106.865,112.513,[-0.48425925219500504],[0.2805555484913014],[1],[0],[0],[5.649000000000001],0,18,18,105,1,./IMAGES_ONLINE_EXPERIMENT/MALES_CFD-WM-031-004-HO_ILL10_C3.png,./IMAGES_ONLINE_EXPERIMENT/MALES_CFD-WM-015-005-HO_ILL10_C5.png,./IMAGES_ONLINE_EXPERIMENT/MALES_CFD-WM-035-033-HO_ILL10_C4.png,./IMAGES_ONLINE_EXPERIMENT/MALES_CFD-WM-001-014-N_ILL10_C1.png,./IMAGES_ONLINE_EXPERIMENT/MALES_CFD-WM-004-011-A_ILL10_C6.png,./IMAGES_ONLINE_EXPERIMENT/MALES_CFD-WM-037-025-N_ILL10_C2.png,./IMAGES_ONLINE_EXPERIMENT/MALES_CFD-WM-004-010-N_ILL10.png,,
,,,,,21205,001,F,20,2026-03-24_16h03.41.307,RUN_BETA,2026.1.0,Win32,59.95203837,112.514,113.012,113.015,120.55,[-0.48425925219500504],[0.2805555484913014],[1],[0],[0],[7.535000000000025],0,19,19,97,1,./IMAGES_ONLINE_EXPERIMENT/FEMALE_CFD-WF-029-026-A_ILL10_C1.png,./IMAGES_ONLINE_EXPERIMENT/FEMALE_CFD-WF-030-002-N_ILL10_C5.png,./IMAGES_ONLINE_EXPERIMENT/FEMALE_CFD-WF-035-019-F_ILL10_C2.png,./IMAGES_ONLINE_EXPERIMENT/FEMALE_CFD-WF-014-009-HC_ILL10_C4.png,./IMAGES_ONLINE_EXPERIMENT/FEMALE_CFD-WF-012-017-F_ILL10_C6.png,./IMAGES_ONLINE_EXPERIMENT/FEMALE_CFD-WF-037-016-A_ILL10_C3.png,./IMAGES_ONLINE_EXPERIMENT/FEMALE_CFD-WF-012-004-HC_ILL9.png,,
,,,,,21205,001,F,20,2026-03-24_16h03.41.307,RUN_BETA,2026.1.0,Win32,59.95203837,120.552,121.045,121.05,131.43,[-0.024074059945565683],[-0.23055556968406396],[1],[0],[0],[10.381],0,20,20,45,1,./IMAGES_ONLINE_EXPERIMENT/MALES_CFD-WM-013-001-N_ILL10_C5.png,./IMAGES_ONLINE_EXPERIMENT/MALES_CFD-WM-006-010-HO_ILL10_C1.png,./IMAGES_ONLINE_EXPERIMENT/MALES_CFD-WM-034-035-HO_ILL10_C4.png,./IMAGES_ONLINE_EXPERIMENT/MALES_CFD-WM-020-012-F_ILL10_C6.png,./IMAGES_ONLINE_EXPERIMENT/MALES_CFD-WM-036-018-A_ILL10_C2.png,./IMAGES_ONLINE_EXPERIMENT/MALES_CFD-WM-034-027-F_ILL10_C3.png,./IMAGES_ONLINE_EXPERIMENT/MALES_CFD-WM-020-001-N_ILL10.png,,
,,,,,21205,001,F,20,2026-03-24_16h03.41.307,RUN_BETA,2026.1.0,Win32,59.95203837,131.431,131.93,131.932,133.797,[-0.024074059945565683],[-0.23055556968406396],[1],[0],[0],[1.8640000000000043],0,21,21,50,1,./IMAGES_ONLINE_EXPERIMENT/FEMALE_CFD-WF-033-031-A_ILL10_C1.png,./IMAGES_ONLINE_EXPERIMENT/FEMALE_CFD-WF-029-023-HC_ILL10_C4.png,./IMAGES_ONLINE_EXPERIMENT/FEMALE_CFD-WF-003-004-HO_ILL10_C6.png,./IMAGES_ONLINE_EXPERIMENT/FEMALE_CFD-WF-006-011-F_ILL10_C3.png,./IMAGES_ONLINE_EXPERIMENT/FEMALE_CFD-WF-022-017-N_ILL10_C5.png,./IMAGES_ONLINE_EXPERIMENT/FEMALE_CFD-WF-029-002-N_ILL10_C2.png,./IMAGES_ONLINE_EXPERIMENT/FEMALE_CFD-WF-003-007-HC_ILL10.png,,
,,,,,21205,001,F,20,2026-03-24_16h03.41.307,RUN_BETA,2026.1.0,Win32,59.95203837,133.797,134.296,134.298,146.28,[0.46296296296296297],[-0.3074073791503906],[1],[0],[0],[11.982],0,22,22,22,1,./IMAGES_ONLINE_EXPERIMENT/MALES_CFD-WM-010-007-HC_ILL7_C1.png,./IMAGES_ONLINE_EXPERIMENT/MALES_CFD-WM-040-033-F_ILL7_C5.png,./IMAGES_ONLINE_EXPERIMENT/MALES_CFD-WM-003-006-HC_ILL7_C2.png,./IMAGES_ONLINE_EXPERIMENT/MALES_CFD-WM-039-018-N_ILL7_C6.png,./IMAGES_ONLINE_EXPERIMENT/MALES_CFD-WM-017-011-A_ILL7_C4.png,./IMAGES_ONLINE_EXPERIMENT/MALES_CFD-WM-023-015-F_ILL7_C3.png,./IMAGES_ONLINE_EXPERIMENT/MALES_CFD-WM-039-010-A_ILL7.png,,
,,,,,21205,001,F,20,2026-03-24_16h03.41.307,RUN_BETA,2026.1.0,Win32,59.95203837,146.28,146.781,146.787,149.631,[0.47685185185185186],[0.21018519224943938],[1],[0],[0],[2.843999999999994],0,23,23,33,1,./IMAGES_ONLINE_EXPERIMENT/MALES_CFD-WM-002-007-HO_ILL10_C6.png,./IMAGES_ONLINE_EXPERIMENT/MALES_CFD-WM-026-019-A_ILL10_C4.png,./IMAGES_ONLINE_EXPERIMENT/MALES_CFD-WM-020-005-HC_ILL10_C1.png,./IMAGES_ONLINE_EXPERIMENT/MALES_CFD-WM-039-018-N_ILL10_C2.png,./IMAGES_ONLINE_EXPERIMENT/MALES_CFD-WM-009-014-F_ILL10_C5.png,./IMAGES_ONLINE_EXPERIMENT/MALES_CFD-WM-019-013-A_ILL10_C3.png,./IMAGES_ONLINE_EXPERIMENT/MALES_CFD-WM-002-009-N_ILL10.png,,
,,,,,21205,001,F,20,2026-03-24_16h03.41.307,RUN_BETA,2026.1.0,Win32,59.95203837,149.632,150.13,150.132,159.231,[0.5462962962962963],[-0.18888890301739727],[1],[0],[0],[9.09899999999999],0,24,24,5,1,./IMAGES_ONLINE_EXPERIMENT/FEMALE_CFD-WF-007-003-HO_ILL9_C5.png,./IMAGES_ONLINE_EXPERIMENT/FEMALE_CFD-WF-022-019-HO_ILL9_C3.png,./IMAGES_ONLINE_EXPERIMENT/FEMALE_CFD-WF-002-004-N_ILL9_C2.png,./IMAGES_ONLINE_EXPERIMENT/FEMALE_CFD-WF-025-031-F_ILL9_C4.png,./IMAGES_ONLINE_EXPERIMENT/FEMALE_CFD-WF-003-004-HO_ILL9_C1.png,./IMAGES_ONLINE_EXPERIMENT/FEMALE_CFD-WF-036-023-N_ILL9_C6.png,./IMAGES_ONLINE_EXPERIMENT/FEMALE_CFD-WF-036-015-A_ILL9.png,,
,,,,,21205,001,F,20,2026-03-24_16h03.41.307,RUN_BETA,2026.1.0,Win32,59.95203837,159.231,159.73,159.733,166.964,[0.517592536078559],[0.18611109698260273],[1],[0],[0],[7.231999999999999],0,25,25,4,1,./IMAGES_ONLINE_EXPERIMENT/FEMALE_CFD-WF-010-013-F_ILL7_C1.png,./IMAGES_ONLINE_EXPERIMENT/FEMALE_CFD-WF-019-035-HO_ILL7_C4.png,./IMAGES_ONLINE_EXPERIMENT/FEMALE_CFD-WF-021-018-A_ILL7_C6.png,./IMAGES_ONLINE_EXPERIMENT/FEMALE_CFD-WF-031-045-F_ILL7_C5.png,./IMAGES_ONLINE_EXPERIMENT/FEMALE_CFD-WF-023-013-A_ILL7_C2.png,./IMAGES_ONLINE_EXPERIMENT/FEMALE_CFD-WF-011-002-N_ILL7_C3.png,./IMAGES_ONLINE_EXPERIMENT/FEMALE_CFD-WF-021-016-HO_ILL7.png,,
,,,,,21205,001,F,20,2026-03-24_16h03.41.307,RUN_BETA,2026.1.0,Win32,59.95203837,166.965,167.464,167.465,180.605,[0.006481453224464699],[-0.21203705116554541],[1],[0],[0],[13.139999999999986],0,26,26,110,1,./IMAGES_ONLINE_EXPERIMENT/FEMALE_CFD-WF-024-003-N_ILL10_C2.png,./IMAGES_ONLINE_EXPERIMENT/FEMALE_CFD-WF-031-005-HO_ILL10_C3.png,./IMAGES_ONLINE_EXPERIMENT/FEMALE_CFD-WF-034-028-F_ILL10_C6.png,./IMAGES_ONLINE_EXPERIMENT/FEMALE_CFD-WF-014-004-HO_ILL10_C1.png,./IMAGES_ONLINE_EXPERIMENT/FEMALE_CFD-WF-013-003-N_ILL10_C4.png,./IMAGES_ONLINE_EXPERIMENT/FEMALE_CFD-WF-023-020-HO_ILL10_C5.png,./IMAGES_ONLINE_EXPERIMENT/FEMALE_CFD-WF-034-061-HC_ILL10.png,,
,,,,,21205,001,F,20,2026-03-24_16h03.41.307,RUN_BETA,2026.1.0,Win32,59.95203837,180.608,181.101,181.106,185.215,[0.5342592310022425],[-0.2703703421133536],[1],[0],[0],[4.111000000000018],0,27,27,37,1,./IMAGES_ONLINE_EXPERIMENT/FEMALE_CFD-WF-016-024-F_ILL10_C3.png,./IMAGES_ONLINE_EXPERIMENT/FEMALE_CFD-WF-037-016-A_ILL10_C1.png,./IMAGES_ONLINE_EXPERIMENT/FEMALE_CFD-WF-034-061-HC_ILL10_C4.png,./IMAGES_ONLINE_EXPERIMENT/FEMALE_CFD-WF-017-016-HC_ILL10_C5.png,./IMAGES_ONLINE_EXPERIMENT/FEMALE_CFD-WF-029-018-F_ILL10_C2.png,./IMAGES_ONLINE_EXPERIMENT/FEMALE_CFD-WF-026-008-A_ILL10_C6.png,./IMAGES_ONLINE_EXPERIMENT/FEMALE_CFD-WF-026-018-HC_ILL9.png,,
,,,,,21205,001,F,20,2026-03-24_16h03.41.307,RUN_BETA,2026.1.0,Win32,59.95203837,185.216,185.715,185.718,187.903,[0.5342592310022425],[-0.2703703421133536],[1],[0],[0],[2.186000000000007],0,28,28,29,1,./IMAGES_ONLINE_EXPERIMENT/FEMALE_CFD-WF-010-006-HO_ILL9_C1.png,./IMAGES_ONLINE_EXPERIMENT/FEMALE_CFD-WF-012-012-A_ILL9_C4.png,./IMAGES_ONLINE_EXPERIMENT/FEMALE_CFD-WF-036-023-N_ILL9_C2.png,./IMAGES_ONLINE_EXPERIMENT/FEMALE_CFD-WF-005-010-N_ILL9_C6.png,./IMAGES_ONLINE_EXPERIMENT/FEMALE_CFD-WF-026-017-HO_ILL9_C3.png,./IMAGES_ONLINE_EXPERIMENT/FEMALE_CFD-WF-028-023-N_ILL9_C5.png,./IMAGES_ONLINE_EXPERIMENT/FEMALE_CFD-WF-005-013-HO_ILL9.png,,
,,,,,21205,001,F,20,2026-03-24_16h03.41.307,RUN_BETA,2026.1.0,Win32,59.95203837,187.904,188.398,188.399,195.182,[-0.43703704410129124],[0.30925925572713214],[1],[0],[0],[6.782999999999987],0,29,29,54,1,./IMAGES_ONLINE_EXPERIMENT/MALES_CFD-WM-038-011-A_ILL10_C4.png,./IMAGES_ONLINE_EXPERIMENT/MALES_CFD-WM-031-003-N_ILL10_C6.png,./IMAGES_ONLINE_EXPERIMENT/MALES_CFD-WM-009-014-F_ILL10_C5.png,./IMAGES_ONLINE_EXPERIMENT/MALES_CFD-WM-037-034-HO_ILL10_C3.png,./IMAGES_ONLINE_EXPERIMENT/MALES_CFD-WM-040-025-HC_ILL10_C1.png,./IMAGES_ONLINE_EXPERIMENT/MALES_CFD-WM-020-012-F_ILL10_C2.png,./IMAGES_ONLINE_EXPERIMENT/MALES_CFD-WM-031-004-HO_ILL7.png,,
,,,,,21205,001,F,20,2026-03-24_16h03.41.307,RUN_BETA,2026.1.0,Win32,59.95203837,195.182,195.681,195.686,212.132,[-0.0425925784640842],[0.2805555484913014],[1],[0],[0],[16.448000000000008],0,30,30,62,1,./IMAGES_ONLINE_EXPERIMENT/FEMALE_CFD-WF-016-017-HC_ILL10_C3.png,./IMAGES_ONLINE_EXPERIMENT/FEMALE_CFD-WF-011-006-HC_ILL10_C6.png,./IMAGES_ONLINE_EXPERIMENT/FEMALE_CFD-WF-010-014-A_ILL10_C2.png,./IMAGES_ONLINE_EXPERIMENT/FEMALE_CFD-WF-030-031-HC_ILL10_C1.png,./IMAGES_ONLINE_EXPERIMENT/FEMALE_CFD-WF-037-016-A_ILL10_C5.png,./IMAGES_ONLINE_EXPERIMENT/FEMALE_CFD-WF-027-007-HC_ILL10_C4.png,./IMAGES_ONLINE_EXPERIMENT/FEMALE_CFD-WF-011-002-N_ILL10.png,,
,,,,,21205,001,F,20,2026-03-24_16h03.41.307,RUN_BETA,2026.1.0,Win32,59.95203837,212.132,212.632,212.639,220.299,[-0.017592606721100985],[-0.17407410233109086],[1],[0],[0],[7.662000000000006],0,31,31,95,1,./IMAGES_ONLINE_EXPERIMENT/MALES_CFD-WM-031-003-N_ILL9_C1.png,./IMAGES_ONLINE_EXPERIMENT/MALES_CFD-WM-029-020-F_ILL9_C4.png,./IMAGES_ONLINE_EXPERIMENT/MALES_CFD-WM-025-019-HO_ILL9_C2.png,./IMAGES_ONLINE_EXPERIMENT/MALES_CFD-WM-038-018-F_ILL9_C6.png,./IMAGES_ONLINE_EXPERIMENT/MALES_CFD-WM-020-008-A_ILL9_C5.png,./IMAGES_ONLINE_EXPERIMENT/MALES_CFD-WM-010-016-A_ILL9_C3.png,./IMAGES_ONLINE_EXPERIMENT/MALES_CFD-WM-038-007-HC_ILL9.png,,
,,,,,21205,001,F,20,2026-03-24_16h03.41.307,RUN_BETA,2026.1.0,Win32,59.95203837,220.3,220.799,220.801,225.483,[0.464814786557798],[-0.22870367544668693],[1],[0],[0],[4.683000000000021],0,32,32,117,1,./IMAGES_ONLINE_EXPERIMENT/MALES_CFD-WM-013-006-HO_ILL10_C5.png,./IMAGES_ONLINE_EXPERIMENT/MALES_CFD-WM-022-012-F_ILL10_C6.png,./IMAGES_ONLINE_EXPERIMENT/MALES_CFD-WM-031-004-HO_ILL10_C3.png,./IMAGES_ONLINE_EXPERIMENT/MALES_CFD-WM-012-026-F_ILL10_C1.png,./IMAGES_ONLINE_EXPERIMENT/MALES_CFD-WM-036-031-N_ILL10_C2.png,./IMAGES_ONLINE_EXPERIMENT/MALES_CFD-WM-018-007-A_ILL10_C4.png,./IMAGES_ONLINE_EXPERIMENT/MALES_CFD-WM-022-005-HO_ILL10.png,,
,,,,,21205,001,F,20,2026-03-24_16h03.41.307,RUN_BETA,2026.1.0,Win32,59.95203837,225.484,225.983,225.986,235.15,[0.08055552729853878],[-0.2259259400544343],[1],[0],[0],[9.164999999999964],0,33,33,43,1,./IMAGES_ONLINE_EXPERIMENT/MALES_CFD-WM-038-007-HC_ILL10_C5.png,./IMAGES_ONLINE_EXPERIMENT/MALES_CFD-WM-039-010-A_ILL10_C3.png,./IMAGES_ONLINE_EXPERIMENT/MALES_CFD-WM-031-045-A_ILL10_C1.png,./IMAGES_ONLINE_EXPERIMENT/MALES_CFD-WM-023-007-HC_ILL10_C6.png,./IMAGES_ONLINE_EXPERIMENT/MALES_CFD-WM-004-010-N_ILL10_C4.png,./IMAGES_ONLINE_EXPERIMENT/MALES_CFD-WM-003-008-A_ILL10_C2.png,./IMAGES_ONLINE_EXPERIMENT/MALES_CFD-WM-023-012-A_ILL9.png,,
,,,,,21205,001,F,20,2026-03-24_16h03.41.307,RUN_BETA,2026.1.0,Win32,59.95203837,235.15,235.65,235.652,237.501,[0.027777777777777776],[0.302777784842032],[1],[0],[0],[1.8489999999999895],0,34,34,14,1,./IMAGES_ONLINE_EXPERIMENT/FEMALE_CFD-WF-029-018-F_ILL10_C3.png,./IMAGES_ONLINE_EXPERIMENT/FEMALE_CFD-WF-034-033-HO_ILL10_C6.png,./IMAGES_ONLINE_EXPERIMENT/FEMALE_CFD-WF-028-026-A_ILL10_C1.png,./IMAGES_ONLINE_EXPERIMENT/FEMALE_CFD-WF-025-031-F_ILL10_C4.png,./IMAGES_ONLINE_EXPERIMENT/FEMALE_CFD-WF-030-031-HC_ILL10_C5.png,./IMAGES_ONLINE_EXPERIMENT/FEMALE_CFD-WF-005-027-F_ILL10_C2.png,./IMAGES_ONLINE_EXPERIMENT/FEMALE_CFD-WF-034-028-F_ILL10.png,,
,,,,,21205,001,F,20,2026-03-24_16h03.41.307,RUN_BETA,2026.1.0,Win32,59.95203837,237.502,238,238.002,240.467,[0.5222221657081887],[-0.35648148148148145],[1],[0],[0],[2.466000000000008],0,35,35,114,1,./IMAGES_ONLINE_EXPERIMENT/MALES_CFD-WM-038-007-HC_ILL10_C3.png,./IMAGES_ONLINE_EXPERIMENT/MALES_CFD-WM-016-001-N_ILL10_C5.png,./IMAGES_ONLINE_EXPERIMENT/MALES_CFD-WM-011-002-N_ILL10_C2.png,./IMAGES_ONLINE_EXPERIMENT/MALES_CFD-WM-023-004-HO_ILL10_C1.png,./IMAGES_ONLINE_EXPERIMENT/MALES_CFD-WM-013-001-N_ILL10_C4.png,./IMAGES_ONLINE_EXPERIMENT/MALES_CFD-WM-015-005-HO_ILL10_C6.png,./IMAGES_ONLINE_EXPERIMENT/MALES_CFD-WM-015-002-N_ILL7.png,,
,,,,,21205,001,F,20,2026-03-24_16h03.41.307,RUN_BETA,2026.1.0,Win32,59.95203837,240.467,240.967,240.969,244.016,[0.008333347461841724],[0.1712962962962963],[1],[0],[0],[3.048000000000002],0,36,36,116,1,./IMAGES_ONLINE_EXPERIMENT/MALES_CFD-WM-013-001-N_ILL10_C2.png,./IMAGES_ONLINE_EXPERIMENT/MALES_CFD-WM-038-011-A_ILL10_C6.png,./IMAGES_ONLINE_EXPERIMENT/MALES_CFD-WM-003-006-HC_ILL10_C5.png,./IMAGES_ONLINE_EXPERIMENT/MALES_CFD-WM-036-031-N_ILL10_C4.png,./IMAGES_ONLINE_EXPERIMENT/MALES_CFD-WM-006-010-HO_ILL10_C1.png,./IMAGES_ONLINE_EXPERIMENT/MALES_CFD-WM-022-012-F_ILL10_C3.png,./IMAGES_ONLINE_EXPERIMENT/MALES_CFD-WM-038-007-HC_ILL10.png,,
,,,,,21205,001,F,20,2026-03-24_16h03.41.307,RUN_BETA,2026.1.0,Win32,59.95203837,244.017,244.517,244.518,247.617,[0.46388894540292247],[-0.29351849026150173],[1],[0],[0],[3.098000000000013],0,37,37,56,1,./IMAGES_ONLINE_EXPERIMENT/MALES_CFD-WM-031-003-N_ILL10_C6.png,./IMAGES_ONLINE_EXPERIMENT/MALES_CFD-WM-024-015-N_ILL10_C2.png,./IMAGES_ONLINE_EXPERIMENT/MALES_CFD-WM-025-019-HO_ILL10_C4.png,./IMAGES_ONLINE_EXPERIMENT/MALES_CFD-WM-024-019-F_ILL10_C1.png,./IMAGES_ONLINE_EXPERIMENT/MALES_CFD-WM-028-005-HC_ILL10_C5.png,./IMAGES_ONLINE_EXPERIMENT/MALES_CFD-WM-009-014-F_ILL10_C3.png,./IMAGES_ONLINE_EXPERIMENT/MALES_CFD-WM-031-032-F_ILL10.png,,
,,,,,21205,001,F,20,2026-03-24_16h03.41.307,RUN_BETA,2026.1.0,Win32,59.95203837,247.62,248.117,248.122,251.533,[-0.49537037037037035],[0.18703704410129124],[1],[0],[0],[3.413000000000011],0,38,38,55,1,./IMAGES_ONLINE_EXPERIMENT/MALES_CFD-WM-003-006-HC_ILL10_C6.png,./IMAGES_ONLINE_EXPERIMENT/MALES_CFD-WM-018-005-HC_ILL10_C1.png,./IMAGES_ONLINE_EXPERIMENT/MALES_CFD-WM-011-006-HC_ILL10_C2.png,./IMAGES_ONLINE_EXPERIMENT/MALES_CFD-WM-018-007-A_ILL10_C3.png,./IMAGES_ONLINE_EXPERIMENT/MALES_CFD-WM-038-018-F_ILL10_C5.png,./IMAGES_ONLINE_EXPERIMENT/MALES_CFD-WM-009-009-A_ILL10_C4.png,./IMAGES_ONLINE_EXPERIMENT/MALES_CFD-WM-003-003-HO_ILL9.png,,
,,,,,21205,001,F,20,2026-03-24_16h03.41.307,RUN_BETA,2026.1.0,Win32,59.95203837,251.534,252.033,252.038,256.784,[0.4675925925925926],[-0.24166665253815828],[1],[0],[0],[4.749000000000024],0,39,39,96,1,./IMAGES_ONLINE_EXPERIMENT/FEMALE_CFD-WF-011-006-HC_ILL10_C6.png,./IMAGES_ONLINE_EXPERIMENT/FEMALE_CFD-WF-016-017-HC_ILL10_C5.png,./IMAGES_ONLINE_EXPERIMENT/FEMALE_CFD-WF-010-014-A_ILL10_C3.png,./IMAGES_ONLINE_EXPERIMENT/FEMALE_CFD-WF-033-005-HO_ILL10_C1.png,./IMAGES_ONLINE_EXPERIMENT/FEMALE_CFD-WF-030-026-F_ILL10_C4.png,./IMAGES_ONLINE_EXPERIMENT/FEMALE_CFD-WF-016-015-N_ILL10_C2.png,./IMAGES_ONLINE_EXPERIMENT/FEMALE_CFD-WF-011-016-F_ILL7.png,,
,,,,,21205,001,F,20,2026-03-24_16h03.41.307,RUN_BETA,2026.1.0,Win32,59.95203837,256.784,257.284,257.287,261.451,[0.45740735089337387],[0.19259258552833838],[1],[0],[0],[4.1650000000000205],0,40,40,100,1,./IMAGES_ONLINE_EXPERIMENT/FEMALE_CFD-WF-022-007-HC_ILL7_C5.png,./IMAGES_ONLINE_EXPERIMENT/FEMALE_CFD-WF-020-027-F_ILL7_C2.png,./IMAGES_ONLINE_EXPERIMENT/FEMALE_CFD-WF-033-031-A_ILL7_C1.png,./IMAGES_ONLINE_EXPERIMENT/FEMALE_CFD-WF-017-016-HC_ILL7_C4.png,./IMAGES_ONLINE_EXPERIMENT/FEMALE_CFD-WF-019-035-HO_ILL7_C6.png,./IMAGES_ONLINE_EXPERIMENT/FEMALE_CFD-WF-025-031-F_ILL7_C3.png,./IMAGES_ONLINE_EXPERIMENT/FEMALE_CFD-WF-019-024-F_ILL7.png,,
,,,,,21205,001,F,20,2026-03-24_16h03.41.307,RUN_BETA,2026.1.0,Win32,59.95203837,261.452,261.95,261.953,266.8,[-0.5231481481481481],[0.2833333368654604],[1],[0],[0],[4.848000000000013],0,41,41,88,1,./IMAGES_ONLINE_EXPERIMENT/FEMALE_CFD-WF-027-021-HO_ILL7_C4.png,./IMAGES_ONLINE_EXPERIMENT/FEMALE_CFD-WF-039-005-HO_ILL7_C5.png,./IMAGES_ONLINE_EXPERIMENT/FEMALE_CFD-WF-023-020-HO_ILL7_C3.png,./IMAGES_ONLINE_EXPERIMENT/FEMALE_CFD-WF-005-013-HO_ILL7_C2.png,./IMAGES_ONLINE_EXPERIMENT/FEMALE_CFD-WF-016-021-A_ILL7_C1.png,./IMAGES_ONLINE_EXPERIMENT/FEMALE_CFD-WF-009-004-HO_ILL7_C6.png,./IMAGES_ONLINE_EXPERIMENT/FEMALE_CFD-WF-009-006-HC_ILL7.png,,
,,,,,21205,001,F,20,2026-03-24_16h03.41.307,RUN_BETA,2026.1.0,Win32,59.95203837,266.801,267.3,267.304,269.784,[0.5064814532244647],[0.18333332626907914],[1],[0],[0],[2.4809999999999945],0,42,42,23,1,./IMAGES_ONLINE_EXPERIMENT/MALES_CFD-WM-004-002-F_ILL9_C1.png,./IMAGES_ONLINE_EXPERIMENT/MALES_CFD-WM-010-007-HC_ILL9_C5.png,./IMAGES_ONLINE_EXPERIMENT/MALES_CFD-WM-033-014-A_ILL9_C6.png,./IMAGES_ONLINE_EXPERIMENT/MALES_CFD-WM-021-004-HO_ILL9_C3.png,./IMAGES_ONLINE_EXPERIMENT/MALES_CFD-WM-028-007-HO_ILL9_C4.png,./IMAGES_ONLINE_EXPERIMENT/MALES_CFD-WM-026-006-HO_ILL9_C2.png,./IMAGES_ONLINE_EXPERIMENT/MALES_CFD-WM-033-006-HC_ILL9.png,,
,,,,,21205,001,F,20,2026-03-24_16h03.41.307,RUN_BETA,2026.1.0,Win32,59.95203837,269.784,270.285,270.287,273.488,[0.519444500958478],[-0.2398148289433232],[1],[0],[0],[3.201000000000022],0,43,43,118,1,./IMAGES_ONLINE_EXPERIMENT/MALES_CFD-WM-021-009-A_ILL7_C3.png,./IMAGES_ONLINE_EXPERIMENT/MALES_CFD-WM-034-027-F_ILL7_C2.png,./IMAGES_ONLINE_EXPERIMENT/MALES_CFD-WM-009-014-F_ILL7_C4.png,./IMAGES_ONLINE_EXPERIMENT/MALES_CFD-WM-029-029-HO_ILL7_C5.png,./IMAGES_ONLINE_EXPERIMENT/MALES_CFD-WM-034-032-HC_ILL7_C1.png,./IMAGES_ONLINE_EXPERIMENT/MALES_CFD-WM-039-004-HC_ILL7_C6.png,./IMAGES_ONLINE_EXPERIMENT/MALES_CFD-WM-039-028-F_ILL7.png,,
,,,,,21205,001,F,20,2026-03-24_16h03.41.307,RUN_BETA,2026.1.0,Win32,59.95203837,273.489,273.983,273.985,284.685,[0.519444500958478],[-0.2398148289433232],[1],[0],[0],[10.698999999999955],0,44,44,75,1,./IMAGES_ONLINE_EXPERIMENT/FEMALE_CFD-WF-014-023-F_ILL10_C2.png,./IMAGES_ONLINE_EXPERIMENT/FEMALE_CFD-WF-028-023-N_ILL10_C6.png,./IMAGES_ONLINE_EXPERIMENT/FEMALE_CFD-WF-018-013-F_ILL10_C3.png,./IMAGES_ONLINE_EXPERIMENT/FEMALE_CFD-WF-010-008-HC_ILL10_C1.png,./IMAGES_ONLINE_EXPERIMENT/FEMALE_CFD-WF-009-006-HC_ILL10_C5.png,./IMAGES_ONLINE_EXPERIMENT/FEMALE_CFD-WF-021-018-A_ILL10_C4.png,./IMAGES_ONLINE_EXPERIMENT/FEMALE_CFD-WF-028-026-A_ILL10.png,,
,,,,,21205,001,F,20,2026-03-24_16h03.41.307,RUN_BETA,2026.1.0,Win32,59.95203837,284.689,285.187,285.193,290.418,[0.46203698052300346],[0.2888888959531431],[1],[0],[0],[5.227000000000032],0,45,45,2,1,./IMAGES_ONLINE_EXPERIMENT/FEMALE_CFD-WF-009-006-HC_ILL10_C1.png,./IMAGES_ONLINE_EXPERIMENT/FEMALE_CFD-WF-017-003-N_ILL10_C5.png,./IMAGES_ONLINE_EXPERIMENT/FEMALE_CFD-WF-029-026-A_ILL10_C2.png,./IMAGES_ONLINE_EXPERIMENT/FEMALE_CFD-WF-024-031-F_ILL10_C3.png,./IMAGES_ONLINE_EXPERIMENT/FEMALE_CFD-WF-026-008-A_ILL10_C6.png,./IMAGES_ONLINE_EXPERIMENT/FEMALE_CFD-WF-002-033-A_ILL10_C4.png,./IMAGES_ONLINE_EXPERIMENT/FEMALE_CFD-WF-026-002-N_ILL10.png,,
,,,,,21205,001,F,20,2026-03-24_16h03.41.307,RUN_BETA,2026.1.0,Win32,59.95203837,290.419,290.919,290.922,295.118,[0.018518518518518517],[-0.2296296578866464],[1],[0],[0],[4.197999999999979],0,46,46,53,1,./IMAGES_ONLINE_EXPERIMENT/FEMALE_CFD-WF-030-003-HO_ILL9_C5.png,./IMAGES_ONLINE_EXPERIMENT/FEMALE_CFD-WF-039-005-HO_ILL9_C3.png,./IMAGES_ONLINE_EXPERIMENT/FEMALE_CFD-WF-027-007-HC_ILL9_C2.png,./IMAGES_ONLINE_EXPERIMENT/FEMALE_CFD-WF-001-027-F_ILL9_C4.png,./IMAGES_ONLINE_EXPERIMENT/FEMALE_CFD-WF-029-023-HC_ILL9_C6.png,./IMAGES_ONLINE_EXPERIMENT/FEMALE_CFD-WF-002-033-A_ILL9_C1.png,./IMAGES_ONLINE_EXPERIMENT/FEMALE_CFD-WF-029-002-N_ILL9.png,,
,,,,,21205,001,F,20,2026-03-24_16h03.41.307,RUN_BETA,2026.1.0,Win32,59.95203837,295.119,295.619,295.62,298.452,[-0.009259259259259259],[0.13703702997278283],[1],[0],[0],[2.8319999999999936],0,47,47,74,1,./IMAGES_ONLINE_EXPERIMENT/FEMALE_CFD-WF-020-002-N_ILL10_C4.png,./IMAGES_ONLINE_EXPERIMENT/FEMALE_CFD-WF-003-004-HO_ILL10_C6.png,./IMAGES_ONLINE_EXPERIMENT/FEMALE_CFD-WF-022-019-HO_ILL10_C2.png,./IMAGES_ONLINE_EXPERIMENT/FEMALE_CFD-WF-012-007-HO_ILL10_C3.png,./IMAGES_ONLINE_EXPERIMENT/FEMALE_CFD-WF-039-025-N_ILL10_C5.png,./IMAGES_ONLINE_EXPERIMENT/FEMALE_CFD-WF-038-021-N_ILL10_C1.png,./IMAGES_ONLINE_EXPERIMENT/FEMALE_CFD-WF-003-014-A_ILL10.png,,
,,,,,21205,001,F,20,2026-03-24_16h03.41.307,RUN_BETA,2026.1.0,Win32,59.95203837,298.453,298.951,298.953,304.668,[0.4675925925925926],[0.21018519224943938],[1],[0],[0],[5.715000000000032],0,48,48,72,1,./IMAGES_ONLINE_EXPERIMENT/FEMALE_CFD-WF-015-006-N_ILL10_C5.png,./IMAGES_ONLINE_EXPERIMENT/FEMALE_CFD-WF-001-009-HO_ILL10_C4.png,./IMAGES_ONLINE_EXPERIMENT/FEMALE_CFD-WF-024-031-F_ILL10_C6.png,./IMAGES_ONLINE_EXPERIMENT/FEMALE_CFD-WF-007-026-F_ILL10_C3.png,./IMAGES_ONLINE_EXPERIMENT/FEMALE_CFD-WF-037-029-N_ILL10_C2.png,./IMAGES_ONLINE_EXPERIMENT/FEMALE_CFD-WF-023-013-A_ILL10_C1.png,./IMAGES_ONLINE_EXPERIMENT/FEMALE_CFD-WF-024-010-HC_ILL7.png,,
,,,,,21205,001,F,20,2026-03-24_16h03.41.307,RUN_BETA,2026.1.0,Win32,59.95203837,304.669,305.169,305.172,312.536,[0.5074074356644241],[-0.27962960137261283],[1],[0],[0],[7.363999999999976],0,49,49,19,1,./IMAGES_ONLINE_EXPERIMENT/MALES_CFD-WM-016-001-N_ILL10_C2.png,./IMAGES_ONLINE_EXPERIMENT/MALES_CFD-WM-037-060-A_ILL10_C3.png,./IMAGES_ONLINE_EXPERIMENT/MALES_CFD-WM-018-002-N_ILL10_C4.png,./IMAGES_ONLINE_EXPERIMENT/MALES_CFD-WM-034-035-HO_ILL10_C5.png,./IMAGES_ONLINE_EXPERIMENT/MALES_CFD-WM-033-007-HO_ILL10_C1.png,./IMAGES_ONLINE_EXPERIMENT/MALES_CFD-WM-011-011-A_ILL10_C6.png,./IMAGES_ONLINE_EXPERIMENT/MALES_CFD-WM-011-002-N_ILL9.png,,
,,,,,21205,001,F,20,2026-03-24_16h03.41.307,RUN_BETA,2026.1.0,Win32,59.95203837,312.54,313.035,313.043,315.069,[0.5074074356644241],[-0.27962960137261283],[1],[0],[0],[2.0289999999999964],0,50,50,104,1,./IMAGES_ONLINE_EXPERIMENT/MALES_CFD-WM-035-032-N_ILL10_C4.png,./IMAGES_ONLINE_EXPERIMENT/MALES_CFD-WM-028-003-N_ILL10_C1.png,./IMAGES_ONLINE_EXPERIMENT/MALES_CFD-WM-009-002-N_ILL10_C3.png,./IMAGES_ONLINE_EXPERIMENT/MALES_CFD-WM-037-063-F_ILL10_C2.png,./IMAGES_ONLINE_EXPERIMENT/MALES_CFD-WM-037-033-HC_ILL10_C5.png,./IMAGES_ONLINE_EXPERIMENT/MALES_CFD-WM-014-024-F_ILL10_C6.png,./IMAGES_ONLINE_EXPERIMENT/MALES_CFD-WM-014-004-HO_ILL10.png,,
,,,,,21205,001,F,20,2026-03-24_16h03.41.307,RUN_BETA,2026.1.0,Win32,59.95203837,315.069,315.568,315.57,318.252,[0.4935185467755353],[0.16944443738019024],[1],[0],[0],[2.6829999999999927],0,51,51,27,1,./IMAGES_ONLINE_EXPERIMENT/FEMALE_CFD-WF-014-009-HC_ILL10_C5.png,./IMAGES_ONLINE_EXPERIMENT/FEMALE_CFD-WF-011-003-HO_ILL10_C3.png,./IMAGES_ONLINE_EXPERIMENT/FEMALE_CFD-WF-023-026-F_ILL10_C1.png,./IMAGES_ONLINE_EXPERIMENT/FEMALE_CFD-WF-003-007-HC_ILL10_C6.png,./IMAGES_ONLINE_EXPERIMENT/FEMALE_CFD-WF-021-016-HO_ILL10_C4.png,./IMAGES_ONLINE_EXPERIMENT/FEMALE_CFD-WF-012-012-A_ILL10_C2.png,./IMAGES_ONLINE_EXPERIMENT/FEMALE_CFD-WF-003-004-HO_ILL10.png,,
,,,,,21205,001,F,20,2026-03-24_16h03.41.307,RUN_BETA,2026.1.0,Win32,59.95203837,318.253,318.752,318.754,321.069,[-0.5703703562418619],[-0.2842592310022425],[1],[0],[0],[2.3149999999999977],0,52,52,40,1,./IMAGES_ONLINE_EXPERIMENT/FEMALE_CFD-WF-026-002-N_ILL7_C3.png,./IMAGES_ONLINE_EXPERIMENT/FEMALE_CFD-WF-011-011-A_ILL7_C6.png,./IMAGES_ONLINE_EXPERIMENT/FEMALE_CFD-WF-021-016-HO_ILL7_C4.png,./IMAGES_ONLINE_EXPERIMENT/FEMALE_CFD-WF-013-015-A_ILL7_C2.png,./IMAGES_ONLINE_EXPERIMENT/FEMALE_CFD-WF-026-008-A_ILL7_C1.png,./IMAGES_ONLINE_EXPERIMENT/FEMALE_CFD-WF-009-006-HC_ILL7_C5.png,./IMAGES_ONLINE_EXPERIMENT/FEMALE_CFD-WF-011-016-F_ILL7.png,,
,,,,,21205,001,F,20,2026-03-24_16h03.41.307,RUN_BETA,2026.1.0,Win32,59.95203837,321.069,321.569,321.571,325.269,[-0.4583333333333333],[0.213888892421016],[1],[0],[0],[3.697999999999979],0,53,53,0,1,./IMAGES_ONLINE_EXPERIMENT/FEMALE_CFD-WF-035-027-HO_ILL10_C2.png,./IMAGES_ONLINE_EXPERIMENT/FEMALE_CFD-WF-039-005-HO_ILL10_C4.png,./IMAGES_ONLINE_EXPERIMENT/FEMALE_CFD-WF-006-003-HC_ILL10_C5.png,./IMAGES_ONLINE_EXPERIMENT/FEMALE_CFD-WF-010-013-F_ILL10_C3.png,./IMAGES_ONLINE_EXPERIMENT/FEMALE_CFD-WF-033-035-F_ILL10_C1.png,./IMAGES_ONLINE_EXPERIMENT/FEMALE_CFD-WF-005-022-A_ILL10_C6.png,./IMAGES_ONLINE_EXPERIMENT/FEMALE_CFD-WF-005-016-HC_ILL7.png,,
,,,,,21205,001,F,20,2026-03-24_16h03.41.307,RUN_BETA,2026.1.0,Win32,59.95203837,325.27,325.769,325.77,330.286,[-0.4851851993136936],[0.24166667019879376],[1],[0],[0],[4.5160000000000196],0,54,54,98,1,./IMAGES_ONLINE_EXPERIMENT/FEMALE_CFD-WF-013-006-HO_ILL10_C3.png,./IMAGES_ONLINE_EXPERIMENT/FEMALE_CFD-WF-018-017-N_ILL10_C1.png,./IMAGES_ONLINE_EXPERIMENT/FEMALE_CFD-WF-001-009-HO_ILL10_C6.png,./IMAGES_ONLINE_EXPERIMENT/FEMALE_CFD-WF-019-005-N_ILL10_C4.png,./IMAGES_ONLINE_EXPERIMENT/FEMALE_CFD-WF-033-002-N_ILL10_C2.png,./IMAGES_ONLINE_EXPERIMENT/FEMALE_CFD-WF-039-008-HC_ILL10_C5.png,./IMAGES_ONLINE_EXPERIMENT/FEMALE_CFD-WF-001-027-F_ILL10.png,,
,,,,,21205,001,F,20,2026-03-24_16h03.41.307,RUN_BETA,2026.1.0,Win32,59.95203837,330.287,330.785,330.787,332.786,[-0.021296324553313078],[0.29444443738019027],[1],[0],[0],[2],0,55,55,80,1,./IMAGES_ONLINE_EXPERIMENT/MALES_CFD-WM-003-002-N_ILL10_C1.png,./IMAGES_ONLINE_EXPERIMENT/MALES_CFD-WM-012-001-N_ILL10_C2.png,./IMAGES_ONLINE_EXPERIMENT/MALES_CFD-WM-036-034-HO_ILL10_C5.png,./IMAGES_ONLINE_EXPERIMENT/MALES_CFD-WM-032-001-N_ILL10_C6.png,./IMAGES_ONLINE_EXPERIMENT/MALES_CFD-WM-009-006-HC_ILL10_C3.png,./IMAGES_ONLINE_EXPERIMENT/MALES_CFD-WM-031-038-HC_ILL10_C4.png,./IMAGES_ONLINE_EXPERIMENT/MALES_CFD-WM-032-008-HC_ILL10.png,,
,,,,,21205,001,F,20,2026-03-24_16h03.41.307,RUN_BETA,2026.1.0,Win32,59.95203837,332.787,333.287,333.289,335.403,[0.03333331920482494],[0.2935185255827727],[1],[0],[0],[2.115000000000009],0,56,56,68,1,./IMAGES_ONLINE_EXPERIMENT/MALES_CFD-WM-033-025-N_ILL10_C2.png,./IMAGES_ONLINE_EXPERIMENT/MALES_CFD-WM-039-008-HO_ILL10_C6.png,./IMAGES_ONLINE_EXPERIMENT/MALES_CFD-WM-020-005-HC_ILL10_C5.png,./IMAGES_ONLINE_EXPERIMENT/MALES_CFD-WM-024-010-A_ILL10_C1.png,./IMAGES_ONLINE_EXPERIMENT/MALES_CFD-WM-020-012-F_ILL10_C3.png,./IMAGES_ONLINE_EXPERIMENT/MALES_CFD-WM-012-005-HO_ILL10_C4.png,./IMAGES_ONLINE_EXPERIMENT/MALES_CFD-WM-039-028-F_ILL10.png,,
,,,,,21205,001,F,20,2026-03-24_16h03.41.307,RUN_BETA,2026.1.0,Win32,59.95203837,335.403,335.902,335.905,338.986,[0.003703717832212095],[-0.26111108285409435],[1],[0],[0],[3.0819999999999936],0,57,57,17,1,./IMAGES_ONLINE_EXPERIMENT/FEMALE_CFD-WF-016-017-HC_ILL9_C5.png,./IMAGES_ONLINE_EXPERIMENT/FEMALE_CFD-WF-019-032-HC_ILL9_C6.png,./IMAGES_ONLINE_EXPERIMENT/FEMALE_CFD-WF-021-002-N_ILL9_C2.png,./IMAGES_ONLINE_EXPERIMENT/FEMALE_CFD-WF-036-023-N_ILL9_C4.png,./IMAGES_ONLINE_EXPERIMENT/FEMALE_CFD-WF-039-044-F_ILL9_C1.png,./IMAGES_ONLINE_EXPERIMENT/FEMALE_CFD-WF-018-017-N_ILL9_C3.png,./IMAGES_ONLINE_EXPERIMENT/FEMALE_CFD-WF-019-024-F_ILL9.png,,
,,,,,21205,001,F,20,2026-03-24_16h03.41.307,RUN_BETA,2026.1.0,Win32,59.95203837,338.986,339.487,339.49,341.686,[0.015740712483723957],[0.2712962892320421],[1],[0],[0],[2.1970000000000027],0,58,58,36,1,./IMAGES_ONLINE_EXPERIMENT/FEMALE_CFD-WF-001-010-HC_ILL10_C4.png,./IMAGES_ONLINE_EXPERIMENT/FEMALE_CFD-WF-025-023-HC_ILL10_C6.png,./IMAGES_ONLINE_EXPERIMENT/FEMALE_CFD-WF-036-030-HC_ILL10_C2.png,./IMAGES_ONLINE_EXPERIMENT/FEMALE_CFD-WF-018-013-F_ILL10_C1.png,./IMAGES_ONLINE_EXPERIMENT/FEMALE_CFD-WF-006-006-HO_ILL10_C5.png,./IMAGES_ONLINE_EXPERIMENT/FEMALE_CFD-WF-009-006-HC_ILL10_C3.png,./IMAGES_ONLINE_EXPERIMENT/FEMALE_CFD-WF-025-006-HO_ILL7.png,,
,,,,,21205,001,F,20,2026-03-24_16h03.41.307,RUN_BETA,2026.1.0,Win32,59.95203837,341.687,342.187,342.193,347.804,[-0.04444447270146123],[-0.25277780603479455],[1],[0],[0],[5.61099999999999],0,59,59,9,1,./IMAGES_ONLINE_EXPERIMENT/MALES_CFD-WM-038-003-N_ILL10_C2.png,./IMAGES_ONLINE_EXPERIMENT/MALES_CFD-WM-034-032-HC_ILL10_C3.png,./IMAGES_ONLINE_EXPERIMENT/MALES_CFD-WM-041-021-N_ILL10_C5.png,./IMAGES_ONLINE_EXPERIMENT/MALES_CFD-WM-041-009-A_ILL10_C4.png,./IMAGES_ONLINE_EXPERIMENT/MALES_CFD-WM-029-023-N_ILL10_C6.png,./IMAGES_ONLINE_EXPERIMENT/MALES_CFD-WM-003-003-HO_ILL10_C1.png,./IMAGES_ONLINE_EXPERIMENT/MALES_CFD-WM-029-029-HO_ILL10.png,,
,,,,,21205,001,F,20,2026-03-24_16h03.41.307,RUN_BETA,2026.1.0,Win32,59.95203837,347.804,348.303,348.306,351.487,[-0.4361110969826027],[0.34814815168027524],[1],[0],[0],[3.18100000000004],0,60,60,73,1,./IMAGES_ONLINE_EXPERIMENT/FEMALE_CFD-WF-038-027-HC_ILL10_C6.png,./IMAGES_ONLINE_EXPERIMENT/FEMALE_CFD-WF-011-016-F_ILL10_C5.png,./IMAGES_ONLINE_EXPERIMENT/FEMALE_CFD-WF-027-021-HO_ILL10_C3.png,./IMAGES_ONLINE_EXPERIMENT/FEMALE_CFD-WF-019-032-HC_ILL10_C1.png,./IMAGES_ONLINE_EXPERIMENT/FEMALE_CFD-WF-011-002-N_ILL10_C4.png,./IMAGES_ONLINE_EXPERIMENT/FEMALE_CFD-WF-035-033-A_ILL10_C2.png,./IMAGES_ONLINE_EXPERIMENT/FEMALE_CFD-WF-038-030-A_ILL9.png,,
,,,,,21205,001,F,20,2026-03-24_16h03.41.307,RUN_BETA,2026.1.0,Win32,59.95203837,351.487,351.991,351.992,355.57,[-0.5601851851851852],[-0.2925925784640842],[1],[0],[0],[3.5779999999999745],0,61,61,92,1,./IMAGES_ONLINE_EXPERIMENT/MALES_CFD-WM-010-004-HO_ILL10_C5.png,./IMAGES_ONLINE_EXPERIMENT/MALES_CFD-WM-036-034-HO_ILL10_C3.png,./IMAGES_ONLINE_EXPERIMENT/MALES_CFD-WM-038-011-A_ILL10_C6.png,./IMAGES_ONLINE_EXPERIMENT/MALES_CFD-WM-023-007-HC_ILL10_C4.png,./IMAGES_ONLINE_EXPERIMENT/MALES_CFD-WM-023-015-F_ILL10_C2.png,./IMAGES_ONLINE_EXPERIMENT/MALES_CFD-WM-002-008-HC_ILL10_C1.png,./IMAGES_ONLINE_EXPERIMENT/MALES_CFD-WM-038-007-HC_ILL10.png,,
,,,,,21205,001,F,20,2026-03-24_16h03.41.307,RUN_BETA,2026.1.0,Win32,59.95203837,355.571,356.071,356.074,360.087,[0.480555499041522],[-0.197222250479239],[1],[0],[0],[4.01400000000001],0,62,62,67,1,./IMAGES_ONLINE_EXPERIMENT/MALES_CFD-WM-013-015-A_ILL10_C2.png,./IMAGES_ONLINE_EXPERIMENT/MALES_CFD-WM-009-014-F_ILL10_C4.png,./IMAGES_ONLINE_EXPERIMENT/MALES_CFD-WM-013-019-F_ILL10_C1.png,./IMAGES_ONLINE_EXPERIMENT/MALES_CFD-WM-018-005-HC_ILL10_C3.png,./IMAGES_ONLINE_EXPERIMENT/MALES_CFD-WM-040-023-HO_ILL10_C6.png,./IMAGES_ONLINE_EXPERIMENT/MALES_CFD-WM-014-008-HC_ILL10_C5.png,./IMAGES_ONLINE_EXPERIMENT/MALES_CFD-WM-040-007-A_ILL9.png,,
,,,,,21205,001,F,20,2026-03-24_16h03.41.307,RUN_BETA,2026.1.0,Win32,59.95203837,360.088,360.587,360.59,362.887,[-0.4435185326470269],[-0.24722219396520545],[1],[0],[0],[2.298000000000002],0,63,63,38,1,./IMAGES_ONLINE_EXPERIMENT/FEMALE_CFD-WF-013-006-HO_ILL10_C4.png,./IMAGES_ONLINE_EXPERIMENT/FEMALE_CFD-WF-011-002-N_ILL10_C1.png,./IMAGES_ONLINE_EXPERIMENT/FEMALE_CFD-WF-003-007-HC_ILL10_C5.png,./IMAGES_ONLINE_EXPERIMENT/FEMALE_CFD-WF-028-025-HC_ILL10_C6.png,./IMAGES_ONLINE_EXPERIMENT/FEMALE_CFD-WF-025-031-F_ILL10_C2.png,./IMAGES_ONLINE_EXPERIMENT/FEMALE_CFD-WF-022-019-HO_ILL10_C3.png,./IMAGES_ONLINE_EXPERIMENT/FEMALE_CFD-WF-028-026-A_ILL10.png,,
,,,,,21205,001,F,20,2026-03-24_16h03.41.307,RUN_BETA,2026.1.0,Win32,59.95203837,362.888,363.387,363.388,365.653,[-0.019444430315936054],[-0.23888891714590568],[1],[0],[0],[2.265000000000043],0,64,64,35,1,./IMAGES_ONLINE_EXPERIMENT/MALES_CFD-WM-006-022-A_ILL9_C2.png,./IMAGES_ONLINE_EXPERIMENT/MALES_CFD-WM-013-015-A_ILL9_C3.png,./IMAGES_ONLINE_EXPERIMENT/MALES_CFD-WM-001-011-HO_ILL9_C5.png,./IMAGES_ONLINE_EXPERIMENT/MALES_CFD-WM-023-004-HO_ILL9_C1.png,./IMAGES_ONLINE_EXPERIMENT/MALES_CFD-WM-020-005-HC_ILL9_C6.png,./IMAGES_ONLINE_EXPERIMENT/MALES_CFD-WM-029-020-F_ILL9_C4.png,./IMAGES_ONLINE_EXPERIMENT/MALES_CFD-WM-020-012-F_ILL9.png,,
,,,,,21205,001,F,20,2026-03-24_16h03.41.307,RUN_BETA,2026.1.0,Win32,59.95203837,365.654,366.141,366.142,368.22,[-0.5166666596024124],[0.14444443031593604],[1],[0],[0],[2.0779999999999745],0,65,65,106,1,./IMAGES_ONLINE_EXPERIMENT/MALES_CFD-WM-032-008-HC_ILL7_C3.png,./IMAGES_ONLINE_EXPERIMENT/MALES_CFD-WM-012-026-F_ILL7_C5.png,./IMAGES_ONLINE_EXPERIMENT/MALES_CFD-WM-013-006-HO_ILL7_C2.png,./IMAGES_ONLINE_EXPERIMENT/MALES_CFD-WM-014-004-HO_ILL7_C6.png,./IMAGES_ONLINE_EXPERIMENT/MALES_CFD-WM-041-009-A_ILL7_C1.png,./IMAGES_ONLINE_EXPERIMENT/MALES_CFD-WM-023-004-HO_ILL7_C4.png,./IMAGES_ONLINE_EXPERIMENT/MALES_CFD-WM-014-002-N_ILL7.png,,
,,,,,21205,001,F,20,2026-03-24_16h03.41.307,RUN_BETA,2026.1.0,Win32,59.95203837,368.224,368.721,368.724,370.987,[-0.08148150973849827],[-0.2212963104248047],[1],[0],[0],[2.26400000000001],0,66,66,44,1,./IMAGES_ONLINE_EXPERIMENT/MALES_CFD-WM-029-020-F_ILL10_C1.png,./IMAGES_ONLINE_EXPERIMENT/MALES_CFD-WM-033-006-HC_ILL10_C4.png,./IMAGES_ONLINE_EXPERIMENT/MALES_CFD-WM-039-018-N_ILL10_C3.png,./IMAGES_ONLINE_EXPERIMENT/MALES_CFD-WM-028-003-N_ILL10_C2.png,./IMAGES_ONLINE_EXPERIMENT/MALES_CFD-WM-040-025-HC_ILL10_C6.png,./IMAGES_ONLINE_EXPERIMENT/MALES_CFD-WM-026-004-HC_ILL10_C5.png,./IMAGES_ONLINE_EXPERIMENT/MALES_CFD-WM-040-023-HO_ILL10.png,,
,,,,,21205,001,F,20,2026-03-24_16h03.41.307,RUN_BETA,2026.1.0,Win32,59.95203837,370.988,371.488,371.49,373.908,[-0.05185183772334346],[0.12592591179741752],[1],[0],[0],[2.41700000000003],0,67,67,90,1,./IMAGES_ONLINE_EXPERIMENT/MALES_CFD-WM-012-005-HO_ILL10_C3.png,./IMAGES_ONLINE_EXPERIMENT/MALES_CFD-WM-011-011-A_ILL10_C5.png,./IMAGES_ONLINE_EXPERIMENT/MALES_CFD-WM-039-010-A_ILL10_C1.png,./IMAGES_ONLINE_EXPERIMENT/MALES_CFD-WM-020-003-HO_ILL10_C4.png,./IMAGES_ONLINE_EXPERIMENT/MALES_CFD-WM-019-009-HO_ILL10_C2.png,./IMAGES_ONLINE_EXPERIMENT/MALES_CFD-WM-004-005-HC_ILL10_C6.png,./IMAGES_ONLINE_EXPERIMENT/MALES_CFD-WM-004-011-A_ILL7.png,,
,,,,,21205,001,F,20,2026-03-24_16h03.41.307,RUN_BETA,2026.1.0,Win32,59.95203837,373.91,374.407,374.41,377.421,[0.48425928751627606],[0.16481480775056062],[1],[0],[0],[3.0120000000000005],0,68,68,60,1,./IMAGES_ONLINE_EXPERIMENT/FEMALE_CFD-WF-015-027-F_ILL10_C4.png,./IMAGES_ONLINE_EXPERIMENT/FEMALE_CFD-WF-031-005-HO_ILL10_C6.png,./IMAGES_ONLINE_EXPERIMENT/FEMALE_CFD-WF-027-014-A_ILL10_C1.png,./IMAGES_ONLINE_EXPERIMENT/FEMALE_CFD-WF-014-009-HC_ILL10_C5.png,./IMAGES_ONLINE_EXPERIMENT/FEMALE_CFD-WF-006-006-HO_ILL10_C2.png,./IMAGES_ONLINE_EXPERIMENT/FEMALE_CFD-WF-019-032-HC_ILL10_C3.png,./IMAGES_ONLINE_EXPERIMENT/FEMALE_CFD-WF-031-009-HC_ILL7.png,,
,,,,,21205,001,F,20,2026-03-24_16h03.41.307,RUN_BETA,2026.1.0,Win32,59.95203837,377.422,377.921,377.923,380.705,[0.057407379150390625],[-0.23888891714590568],[1],[0],[0],[2.782000000000039],0,69,69,7,1,./IMAGES_ONLINE_EXPERIMENT/MALES_CFD-WM-041-023-HC_ILL10_C4.png,./IMAGES_ONLINE_EXPERIMENT/MALES_CFD-WM-014-008-HC_ILL10_C1.png,./IMAGES_ONLINE_EXPERIMENT/MALES_CFD-WM-037-034-HO_ILL10_C3.png,./IMAGES_ONLINE_EXPERIMENT/MALES_CFD-WM-041-021-N_ILL10_C5.png,./IMAGES_ONLINE_EXPERIMENT/MALES_CFD-WM-016-001-N_ILL10_C6.png,./IMAGES_ONLINE_EXPERIMENT/MALES_CFD-WM-015-005-HO_ILL10_C2.png,./IMAGES_ONLINE_EXPERIMENT/MALES_CFD-WM-016-008-A_ILL9.png,,
,,,,,21205,001,F,20,2026-03-24_16h03.41.307,RUN_BETA,2026.1.0,Win32,59.95203837,380.706,381.204,381.206,383.571,[0.4537037037037037],[0.17314815521240234],[1],[0],[0],[2.3659999999999854],0,70,70,82,1,./IMAGES_ONLINE_EXPERIMENT/MALES_CFD-WM-016-005-HC_ILL7_C3.png,./IMAGES_ONLINE_EXPERIMENT/MALES_CFD-WM-034-035-HO_ILL7_C1.png,./IMAGES_ONLINE_EXPERIMENT/MALES_CFD-WM-033-007-HO_ILL7_C6.png,./IMAGES_ONLINE_EXPERIMENT/MALES_CFD-WM-024-007-HC_ILL7_C2.png,./IMAGES_ONLINE_EXPERIMENT/MALES_CFD-WM-010-007-HC_ILL7_C4.png,./IMAGES_ONLINE_EXPERIMENT/MALES_CFD-WM-015-017-A_ILL7_C5.png,./IMAGES_ONLINE_EXPERIMENT/MALES_CFD-WM-033-025-N_ILL7.png,,
,,,,,21205,001,F,20,2026-03-24_16h03.41.307,RUN_BETA,2026.1.0,Win32,59.95203837,383.572,384.071,384.071,386.305,[0.46388894540292247],[0.21203703350490993],[1],[0],[0],[2.2340000000000373],0,71,71,65,1,./IMAGES_ONLINE_EXPERIMENT/FEMALE_CFD-WF-037-016-A_ILL9_C2.png,./IMAGES_ONLINE_EXPERIMENT/FEMALE_CFD-WF-011-006-HC_ILL9_C1.png,./IMAGES_ONLINE_EXPERIMENT/FEMALE_CFD-WF-018-018-HO_ILL9_C6.png,./IMAGES_ONLINE_EXPERIMENT/FEMALE_CFD-WF-025-006-HO_ILL9_C5.png,./IMAGES_ONLINE_EXPERIMENT/FEMALE_CFD-WF-015-006-N_ILL9_C4.png,./IMAGES_ONLINE_EXPERIMENT/FEMALE_CFD-WF-003-014-A_ILL9_C3.png,./IMAGES_ONLINE_EXPERIMENT/FEMALE_CFD-WF-018-019-HC_ILL9.png,,
,,,,,21205,001,F,20,2026-03-24_16h03.41.307,RUN_BETA,2026.1.0,Win32,59.95203837,386.306,386.804,386.807,388.554,[0.5287037602177372],[0.1574074074074074],[1],[0],[0],[1.7479999999999905],0,72,72,21,1,./IMAGES_ONLINE_EXPERIMENT/MALES_CFD-WM-033-006-HC_ILL10_C3.png,./IMAGES_ONLINE_EXPERIMENT/MALES_CFD-WM-022-008-A_ILL10_C2.png,./IMAGES_ONLINE_EXPERIMENT/MALES_CFD-WM-002-009-N_ILL10_C6.png,./IMAGES_ONLINE_EXPERIMENT/MALES_CFD-WM-022-005-HO_ILL10_C5.png,./IMAGES_ONLINE_EXPERIMENT/MALES_CFD-WM-012-005-HO_ILL10_C4.png,./IMAGES_ONLINE_EXPERIMENT/MALES_CFD-WM-023-012-A_ILL10_C1.png,./IMAGES_ONLINE_EXPERIMENT/MALES_CFD-WM-002-007-HO_ILL10.png,,
,,,,,21205,001,F,20,2026-03-24_16h03.41.307,RUN_BETA,2026.1.0,Win32,59.95203837,388.555,389.055,389.055,391.572,[0.03796294883445457],[0.16296294883445459],[1],[0],[0],[2.516999999999996],0,73,73,84,1,./IMAGES_ONLINE_EXPERIMENT/FEMALE_CFD-WF-023-026-F_ILL10_C6.png,./IMAGES_ONLINE_EXPERIMENT/FEMALE_CFD-WF-011-016-F_ILL10_C1.png,./IMAGES_ONLINE_EXPERIMENT/FEMALE_CFD-WF-017-015-HO_ILL10_C4.png,./IMAGES_ONLINE_EXPERIMENT/FEMALE_CFD-WF-036-030-HC_ILL10_C5.png,./IMAGES_ONLINE_EXPERIMENT/FEMALE_CFD-WF-005-010-N_ILL10_C3.png,./IMAGES_ONLINE_EXPERIMENT/FEMALE_CFD-WF-003-014-A_ILL10_C2.png,./IMAGES_ONLINE_EXPERIMENT/FEMALE_CFD-WF-023-020-HO_ILL7.png,,
,,,,,21205,001,F,20,2026-03-24_16h03.41.307,RUN_BETA,2026.1.0,Win32,59.95203837,391.572,392.071,392.073,395.688,[-0.6092592521950051],[-0.23148148148148148],[1],[0],[0],[3.615000000000009],0,74,74,25,1,./IMAGES_ONLINE_EXPERIMENT/FEMALE_CFD-WF-007-003-HO_ILL10_C6.png,./IMAGES_ONLINE_EXPERIMENT/FEMALE_CFD-WF-003-004-HO_ILL10_C5.png,./IMAGES_ONLINE_EXPERIMENT/FEMALE_CFD-WF-003-003-N_ILL10_C1.png,./IMAGES_ONLINE_EXPERIMENT/FEMALE_CFD-WF-030-031-HC_ILL10_C4.png,./IMAGES_ONLINE_EXPERIMENT/FEMALE_CFD-WF-031-009-HC_ILL10_C3.png,./IMAGES_ONLINE_EXPERIMENT/FEMALE_CFD-WF-018-018-HO_ILL10_C2.png,./IMAGES_ONLINE_EXPERIMENT/FEMALE_CFD-WF-007-029-A_ILL9.png,,
,,,,,21205,001,F,20,2026-03-24_16h03.41.307,RUN_BETA,2026.1.0,Win32,59.95203837,395.689,396.188,396.189,399.271,[-0.024074059945565683],[0.22037036330611617],[1],[0],[0],[3.0819999999999936],0,75,75,103,1,./IMAGES_ONLINE_EXPERIMENT/MALES_CFD-WM-039-018-N_ILL10_C2.png,./IMAGES_ONLINE_EXPERIMENT/MALES_CFD-WM-019-013-A_ILL10_C6.png,./IMAGES_ONLINE_EXPERIMENT/MALES_CFD-WM-020-001-N_ILL10_C5.png,./IMAGES_ONLINE_EXPERIMENT/MALES_CFD-WM-026-019-A_ILL10_C1.png,./IMAGES_ONLINE_EXPERIMENT/MALES_CFD-WM-041-023-HC_ILL10_C4.png,./IMAGES_ONLINE_EXPERIMENT/MALES_CFD-WM-017-002-N_ILL10_C3.png,./IMAGES_ONLINE_EXPERIMENT/MALES_CFD-WM-019-006-HC_ILL9.png,,
,,,,,21205,001,F,20,2026-03-24_16h03.41.307,RUN_BETA,2026.1.0,Win32,59.95203837,399.272,399.772,399.773,402.654,[-0.5324074074074074],[0.14537037743462455],[1],[0],[0],[2.882000000000005],0,76,76,34,1,./IMAGES_ONLINE_EXPERIMENT/MALES_CFD-WM-021-004-HO_ILL7_C6.png,./IMAGES_ONLINE_EXPERIMENT/MALES_CFD-WM-040-022-N_ILL7_C1.png,./IMAGES_ONLINE_EXPERIMENT/MALES_CFD-WM-003-002-N_ILL7_C5.png,./IMAGES_ONLINE_EXPERIMENT/MALES_CFD-WM-018-007-A_ILL7_C2.png,./IMAGES_ONLINE_EXPERIMENT/MALES_CFD-WM-014-024-F_ILL7_C3.png,./IMAGES_ONLINE_EXPERIMENT/MALES_CFD-WM-035-018-A_ILL7_C4.png,./IMAGES_ONLINE_EXPERIMENT/MALES_CFD-WM-021-001-N_ILL7.png,,
,,,,,21205,001,F,20,2026-03-24_16h03.41.307,RUN_BETA,2026.1.0,Win32,59.95203837,402.656,403.155,403.157,406.007,[-0.4916666525381583],[-0.25],[1],[0],[0],[2.849999999999966],0,77,77,51,1,./IMAGES_ONLINE_EXPERIMENT/FEMALE_CFD-WF-022-007-HC_ILL10_C2.png,./IMAGES_ONLINE_EXPERIMENT/FEMALE_CFD-WF-030-003-HO_ILL10_C6.png,./IMAGES_ONLINE_EXPERIMENT/FEMALE_CFD-WF-024-003-N_ILL10_C1.png,./IMAGES_ONLINE_EXPERIMENT/FEMALE_CFD-WF-011-011-A_ILL10_C5.png,./IMAGES_ONLINE_EXPERIMENT/FEMALE_CFD-WF-039-008-HC_ILL10_C4.png,./IMAGES_ONLINE_EXPERIMENT/FEMALE_CFD-WF-031-005-HO_ILL10_C3.png,./IMAGES_ONLINE_EXPERIMENT/FEMALE_CFD-WF-030-002-N_ILL10.png,,
,,,,,21205,001,F,20,2026-03-24_16h03.41.307,RUN_BETA,2026.1.0,Win32,59.95203837,406.009,406.508,406.512,409.188,[-0.4916666525381583],[0.19907407407407407],[1],[0],[0],[2.6779999999999973],0,78,78,112,1,./IMAGES_ONLINE_EXPERIMENT/FEMALE_CFD-WF-017-012-F_ILL7_C6.png,./IMAGES_ONLINE_EXPERIMENT/FEMALE_CFD-WF-029-023-HC_ILL7_C1.png,./IMAGES_ONLINE_EXPERIMENT/FEMALE_CFD-WF-018-017-N_ILL7_C5.png,./IMAGES_ONLINE_EXPERIMENT/FEMALE_CFD-WF-035-024-N_ILL7_C2.png,./IMAGES_ONLINE_EXPERIMENT/FEMALE_CFD-WF-005-010-N_ILL7_C4.png,./IMAGES_ONLINE_EXPERIMENT/FEMALE_CFD-WF-034-033-HO_ILL7_C3.png,./IMAGES_ONLINE_EXPERIMENT/FEMALE_CFD-WF-017-023-A_ILL7.png,,
,,,,,21205,001,F,20,2026-03-24_16h03.41.307,RUN_BETA,2026.1.0,Win32,59.95203837,409.189,409.689,409.69,413.472,[-0.4703703633061162],[-0.21018515692816842],[1],[0],[0],[3.7819999999999823],0,79,79,91,1,./IMAGES_ONLINE_EXPERIMENT/MALES_CFD-WM-013-008-HC_ILL10_C4.png,./IMAGES_ONLINE_EXPERIMENT/MALES_CFD-WM-033-007-HO_ILL10_C2.png,./IMAGES_ONLINE_EXPERIMENT/MALES_CFD-WM-031-032-F_ILL10_C3.png,./IMAGES_ONLINE_EXPERIMENT/MALES_CFD-WM-026-013-F_ILL10_C6.png,./IMAGES_ONLINE_EXPERIMENT/MALES_CFD-WM-032-008-HC_ILL10_C5.png,./IMAGES_ONLINE_EXPERIMENT/MALES_CFD-WM-028-019-F_ILL10_C1.png,./IMAGES_ONLINE_EXPERIMENT/MALES_CFD-WM-026-004-HC_ILL9.png,,
,,,,,21205,001,F,20,2026-03-24_16h03.41.307,RUN_BETA,2026.1.0,Win32,59.95203837,413.473,413.973,413.975,416.739,[-0.010185171056676793],[-0.23796293470594618],[1],[0],[0],[2.7649999999999864],0,80,80,102,1,./IMAGES_ONLINE_EXPERIMENT/MALES_CFD-WM-009-006-HC_ILL10_C2.png,./IMAGES_ONLINE_EXPERIMENT/MALES_CFD-WM-039-028-F_ILL10_C4.png,./IMAGES_ONLINE_EXPERIMENT/MALES_CFD-WM-013-001-N_ILL10_C3.png,./IMAGES_ONLINE_EXPERIMENT/MALES_CFD-WM-011-006-HC_ILL10_C1.png,./IMAGES_ONLINE_EXPERIMENT/MALES_CFD-WM-003-006-HC_ILL10_C6.png,./IMAGES_ONLINE_EXPERIMENT/MALES_CFD-WM-017-003-HC_ILL10_C5.png,./IMAGES_ONLINE_EXPERIMENT/MALES_CFD-WM-003-008-A_ILL7.png,,
,,,,,21205,001,F,20,2026-03-24_16h03.41.307,RUN_BETA,2026.1.0,Win32,59.95203837,416.739,417.239,417.241,419.405,[-0.46851850439001014],[-0.2462962821677879],[1],[0],[0],[2.1649999999999636],0,81,81,57,1,./IMAGES_ONLINE_EXPERIMENT/MALES_CFD-WM-025-002-N_ILL10_C4.png,./IMAGES_ONLINE_EXPERIMENT/MALES_CFD-WM-006-013-HC_ILL10_C2.png,./IMAGES_ONLINE_EXPERIMENT/MALES_CFD-WM-013-001-N_ILL10_C6.png,./IMAGES_ONLINE_EXPERIMENT/MALES_CFD-WM-014-002-N_ILL10_C5.png,./IMAGES_ONLINE_EXPERIMENT/MALES_CFD-WM-020-003-HO_ILL10_C1.png,./IMAGES_ONLINE_EXPERIMENT/MALES_CFD-WM-006-002-N_ILL10_C3.png,./IMAGES_ONLINE_EXPERIMENT/MALES_CFD-WM-013-015-A_ILL10.png,,
,,,,,21205,001,F,20,2026-03-24_16h03.41.307,RUN_BETA,2026.1.0,Win32,59.95203837,419.406,419.905,419.908,423.626,[-0.5009259117974175],[0.17870369663944952],[1],[0],[0],[3.718999999999994],0,82,82,41,1,./IMAGES_ONLINE_EXPERIMENT/FEMALE_CFD-WF-003-007-HC_ILL9_C1.png,./IMAGES_ONLINE_EXPERIMENT/FEMALE_CFD-WF-013-015-A_ILL9_C5.png,./IMAGES_ONLINE_EXPERIMENT/FEMALE_CFD-WF-027-021-HO_ILL9_C2.png,./IMAGES_ONLINE_EXPERIMENT/FEMALE_CFD-WF-027-003-N_ILL9_C3.png,./IMAGES_ONLINE_EXPERIMENT/FEMALE_CFD-WF-021-013-F_ILL9_C6.png,./IMAGES_ONLINE_EXPERIMENT/FEMALE_CFD-WF-038-033-F_ILL9_C4.png,./IMAGES_ONLINE_EXPERIMENT/FEMALE_CFD-WF-021-006-HC_ILL9.png,,
,,,,,21205,001,F,20,2026-03-24_16h03.41.307,RUN_BETA,2026.1.0,Win32,59.95203837,423.626,424.123,424.125,428.256,[0.48148148148148145],[-0.23518519931369358],[1],[0],[0],[4.131000000000029],0,83,83,86,1,./IMAGES_ONLINE_EXPERIMENT/FEMALE_CFD-WF-039-005-HO_ILL10_C2.png,./IMAGES_ONLINE_EXPERIMENT/FEMALE_CFD-WF-038-023-HO_ILL10_C1.png,./IMAGES_ONLINE_EXPERIMENT/FEMALE_CFD-WF-039-032-A_ILL10_C4.png,./IMAGES_ONLINE_EXPERIMENT/FEMALE_CFD-WF-018-018-HO_ILL10_C3.png,./IMAGES_ONLINE_EXPERIMENT/FEMALE_CFD-WF-016-021-A_ILL10_C6.png,./IMAGES_ONLINE_EXPERIMENT/FEMALE_CFD-WF-015-022-HO_ILL10_C5.png,./IMAGES_ONLINE_EXPERIMENT/FEMALE_CFD-WF-016-024-F_ILL10.png,,
,,,,,21205,001,F,20,2026-03-24_16h03.41.307,RUN_BETA,2026.1.0,Win32,59.95203837,428.256,428.758,428.76,432.706,[0.040740754869249135],[0.2287037107679579],[1],[0],[0],[3.9470000000000027],0,84,84,39,1,./IMAGES_ONLINE_EXPERIMENT/FEMALE_CFD-WF-021-006-HC_ILL10_C3.png,./IMAGES_ONLINE_EXPERIMENT/FEMALE_CFD-WF-016-003-HO_ILL10_C2.png,./IMAGES_ONLINE_EXPERIMENT/FEMALE_CFD-WF-010-008-HC_ILL10_C1.png,./IMAGES_ONLINE_EXPERIMENT/FEMALE_CFD-WF-022-023-A_ILL10_C5.png,./IMAGES_ONLINE_EXPERIMENT/FEMALE_CFD-WF-015-027-F_ILL10_C6.png,./IMAGES_ONLINE_EXPERIMENT/FEMALE_CFD-WF-033-031-A_ILL10_C4.png,./IMAGES_ONLINE_EXPERIMENT/FEMALE_CFD-WF-015-014-A_ILL10.png,,
,,,,,21205,001,F,20,2026-03-24_16h03.41.307,RUN_BETA,2026.1.0,Win32,59.95203837,432.707,433.207,433.208,434.956,[0.04351849026150174],[-0.2259259400544343],[1],[0],[0],[1.7490000000000236],0,85,85,119,1,./IMAGES_ONLINE_EXPERIMENT/MALES_CFD-WM-006-002-N_ILL9_C1.png,./IMAGES_ONLINE_EXPERIMENT/MALES_CFD-WM-033-025-N_ILL9_C5.png,./IMAGES_ONLINE_EXPERIMENT/MALES_CFD-WM-024-015-N_ILL9_C4.png,./IMAGES_ONLINE_EXPERIMENT/MALES_CFD-WM-010-016-A_ILL9_C3.png,./IMAGES_ONLINE_EXPERIMENT/MALES_CFD-WM-002-007-HO_ILL9_C6.png,./IMAGES_ONLINE_EXPERIMENT/MALES_CFD-WM-034-032-HC_ILL9_C2.png,./IMAGES_ONLINE_EXPERIMENT/MALES_CFD-WM-002-008-HC_ILL9.png,,
,,,,,21205,001,F,20,2026-03-24_16h03.41.307,RUN_BETA,2026.1.0,Win32,59.95203837,434.957,435.455,435.457,438.24,[0.017592606721100985],[-0.22407404581705728],[1],[0],[0],[2.783999999999992],0,86,86,109,1,./IMAGES_ONLINE_EXPERIMENT/FEMALE_CFD-WF-033-031-A_ILL10_C5.png,./IMAGES_ONLINE_EXPERIMENT/FEMALE_CFD-WF-034-028-F_ILL10_C4.png,./IMAGES_ONLINE_EXPERIMENT/FEMALE_CFD-WF-012-002-N_ILL10_C1.png,./IMAGES_ONLINE_EXPERIMENT/FEMALE_CFD-WF-039-005-HO_ILL10_C2.png,./IMAGES_ONLINE_EXPERIMENT/FEMALE_CFD-WF-015-023-HC_ILL10_C3.png,./IMAGES_ONLINE_EXPERIMENT/FEMALE_CFD-WF-031-045-F_ILL10_C6.png,./IMAGES_ONLINE_EXPERIMENT/FEMALE_CFD-WF-031-009-HC_ILL9.png,,
,,,,,21205,001,F,20,2026-03-24_16h03.41.307,RUN_BETA,2026.1.0,Win32,59.95203837,438.24,438.739,438.74,441.36,[0.0018518235948350695],[0.12592591179741752],[1],[0],[0],[2.6200000000000045],0,87,87,107,1,./IMAGES_ONLINE_EXPERIMENT/MALES_CFD-WM-033-025-N_ILL9_C1.png,./IMAGES_ONLINE_EXPERIMENT/MALES_CFD-WM-003-008-A_ILL9_C6.png,./IMAGES_ONLINE_EXPERIMENT/MALES_CFD-WM-024-010-A_ILL9_C5.png,./IMAGES_ONLINE_EXPERIMENT/MALES_CFD-WM-029-020-F_ILL9_C3.png,./IMAGES_ONLINE_EXPERIMENT/MALES_CFD-WM-006-039-F_ILL9_C4.png,./IMAGES_ONLINE_EXPERIMENT/MALES_CFD-WM-016-008-A_ILL9_C2.png,./IMAGES_ONLINE_EXPERIMENT/MALES_CFD-WM-003-006-HC_ILL9.png,,
,,,,,21205,001,F,20,2026-03-24_16h03.41.307,RUN_BETA,2026.1.0,Win32,59.95203837,441.363,441.857,441.86,445.273,[0.5361110545970775],[0.15648149560998986],[1],[0],[0],[3.4139999999999873],0,88,88,99,1,./IMAGES_ONLINE_EXPERIMENT/FEMALE_CFD-WF-010-013-F_ILL10_C1.png,./IMAGES_ONLINE_EXPERIMENT/FEMALE_CFD-WF-007-005-HC_ILL10_C2.png,./IMAGES_ONLINE_EXPERIMENT/FEMALE_CFD-WF-038-030-A_ILL10_C3.png,./IMAGES_ONLINE_EXPERIMENT/FEMALE_CFD-WF-020-012-A_ILL10_C4.png,./IMAGES_ONLINE_EXPERIMENT/FEMALE_CFD-WF-028-023-N_ILL10_C5.png,./IMAGES_ONLINE_EXPERIMENT/FEMALE_CFD-WF-015-006-N_ILL10_C6.png,./IMAGES_ONLINE_EXPERIMENT/FEMALE_CFD-WF-015-022-HO_ILL10.png,,
,,,,,21205,001,F,20,2026-03-24_16h03.41.307,RUN_BETA,2026.1.0,Win32,59.95203837,445.274,445.774,445.776,448.674,[-0.49537037037037035],[0.15185186598036024],[1],[0],[0],[2.899000000000001],0,89,89,42,1,./IMAGES_ONLINE_EXPERIMENT/MALES_CFD-WM-025-022-F_ILL10_C6.png,./IMAGES_ONLINE_EXPERIMENT/MALES_CFD-WM-021-001-N_ILL10_C1.png,./IMAGES_ONLINE_EXPERIMENT/MALES_CFD-WM-032-021-F_ILL10_C5.png,./IMAGES_ONLINE_EXPERIMENT/MALES_CFD-WM-004-005-HC_ILL10_C4.png,./IMAGES_ONLINE_EXPERIMENT/MALES_CFD-WM-026-006-HO_ILL10_C2.png,./IMAGES_ONLINE_EXPERIMENT/MALES_CFD-WM-028-029-A_ILL10_C3.png,./IMAGES_ONLINE_EXPERIMENT/MALES_CFD-WM-025-002-N_ILL7.png,,
,,,,,21205,001,F,20,2026-03-24_16h03.41.307,RUN_BETA,2026.1.0,Win32,59.95203837,448.675,449.173,449.174,454.441,[-0.05185183772334346],[0.15555554849130135],[1],[0],[0],[5.2660000000000196],0,90,90,64,1,./IMAGES_ONLINE_EXPERIMENT/FEMALE_CFD-WF-018-017-N_ILL7_C5.png,./IMAGES_ONLINE_EXPERIMENT/FEMALE_CFD-WF-030-031-HC_ILL7_C2.png,./IMAGES_ONLINE_EXPERIMENT/FEMALE_CFD-WF-038-027-HC_ILL7_C1.png,./IMAGES_ONLINE_EXPERIMENT/FEMALE_CFD-WF-023-003-N_ILL7_C3.png,./IMAGES_ONLINE_EXPERIMENT/FEMALE_CFD-WF-035-033-A_ILL7_C6.png,./IMAGES_ONLINE_EXPERIMENT/FEMALE_CFD-WF-008-003-HO_ILL7_C4.png,./IMAGES_ONLINE_EXPERIMENT/FEMALE_CFD-WF-035-030-HC_ILL7.png,,
,,,,,21205,001,F,20,2026-03-24_16h03.41.307,RUN_BETA,2026.1.0,Win32,59.95203837,454.441,454.94,454.942,457.191,[0.49537037037037035],[0.1574074074074074],[1],[0],[0],[2.248999999999967],0,91,91,12,1,./IMAGES_ONLINE_EXPERIMENT/FEMALE_CFD-WF-022-014-F_ILL10_C5.png,./IMAGES_ONLINE_EXPERIMENT/FEMALE_CFD-WF-026-008-A_ILL10_C1.png,./IMAGES_ONLINE_EXPERIMENT/FEMALE_CFD-WF-039-032-A_ILL10_C2.png,./IMAGES_ONLINE_EXPERIMENT/FEMALE_CFD-WF-034-028-F_ILL10_C4.png,./IMAGES_ONLINE_EXPERIMENT/FEMALE_CFD-WF-007-029-A_ILL10_C3.png,./IMAGES_ONLINE_EXPERIMENT/FEMALE_CFD-WF-029-021-HO_ILL10_C6.png,./IMAGES_ONLINE_EXPERIMENT/FEMALE_CFD-WF-029-023-HC_ILL7.png,,
,,,,,21205,001,F,20,2026-03-24_16h03.41.307,RUN_BETA,2026.1.0,Win32,59.95203837,457.191,457.691,457.692,459.79,[-0.04722220809371383],[0.11944445857295284],[1],[0],[0],[2.098000000000013],0,92,92,31,1,./IMAGES_ONLINE_EXPERIMENT/MALES_CFD-WM-034-035-HO_ILL10_C3.png,./IMAGES_ONLINE_EXPERIMENT/MALES_CFD-WM-016-005-HC_ILL10_C5.png,./IMAGES_ONLINE_EXPERIMENT/MALES_CFD-WM-040-023-HO_ILL10_C1.png,./IMAGES_ONLINE_EXPERIMENT/MALES_CFD-WM-029-009-HC_ILL10_C2.png,./IMAGES_ONLINE_EXPERIMENT/MALES_CFD-WM-004-005-HC_ILL10_C6.png,./IMAGES_ONLINE_EXPERIMENT/MALES_CFD-WM-021-009-A_ILL10_C4.png,./IMAGES_ONLINE_EXPERIMENT/MALES_CFD-WM-004-011-A_ILL9.png,,
,,,,,21205,001,F,20,2026-03-24_16h03.41.307,RUN_BETA,2026.1.0,Win32,59.95203837,459.791,460.29,460.291,463.073,[0.4731482046621817],[-0.2222222222222222],[1],[0],[0],[2.7819999999999823],0,93,93,69,1,./IMAGES_ONLINE_EXPERIMENT/MALES_CFD-WM-036-018-A_ILL10_C5.png,./IMAGES_ONLINE_EXPERIMENT/MALES_CFD-WM-032-001-N_ILL10_C6.png,./IMAGES_ONLINE_EXPERIMENT/MALES_CFD-WM-010-004-HO_ILL10_C2.png,./IMAGES_ONLINE_EXPERIMENT/MALES_CFD-WM-023-015-F_ILL10_C3.png,./IMAGES_ONLINE_EXPERIMENT/MALES_CFD-WM-034-030-N_ILL10_C1.png,./IMAGES_ONLINE_EXPERIMENT/MALES_CFD-WM-014-002-N_ILL10_C4.png,./IMAGES_ONLINE_EXPERIMENT/MALES_CFD-WM-032-021-F_ILL10.png,,
,,,,,21205,001,F,20,2026-03-24_16h03.41.307,RUN_BETA,2026.1.0,Win32,59.95203837,463.073,463.573,463.575,465.641,[0.45462968614366317],[-0.2250000282570168],[1],[0],[0],[2.0649999999999977],0,94,94,10,1,./IMAGES_ONLINE_EXPERIMENT/MALES_CFD-WM-026-001-N_ILL7_C3.png,./IMAGES_ONLINE_EXPERIMENT/MALES_CFD-WM-018-005-HC_ILL7_C5.png,./IMAGES_ONLINE_EXPERIMENT/MALES_CFD-WM-039-004-HC_ILL7_C1.png,./IMAGES_ONLINE_EXPERIMENT/MALES_CFD-WM-032-004-HO_ILL7_C2.png,./IMAGES_ONLINE_EXPERIMENT/MALES_CFD-WM-013-008-HC_ILL7_C4.png,./IMAGES_ONLINE_EXPERIMENT/MALES_CFD-WM-009-014-F_ILL7_C6.png,./IMAGES_ONLINE_EXPERIMENT/MALES_CFD-WM-009-002-N_ILL7.png,,
,,,,,21205,001,F,20,2026-03-24_16h03.41.307,RUN_BETA,2026.1.0,Win32,59.95203837,465.641,466.141,466.143,468.707,[-0.4185185255827727],[0.19166667373092086],[1],[0],[0],[2.5649999999999977],0,95,95,26,1,./IMAGES_ONLINE_EXPERIMENT/FEMALE_CFD-WF-020-012-A_ILL10_C2.png,./IMAGES_ONLINE_EXPERIMENT/FEMALE_CFD-WF-028-026-A_ILL10_C3.png,./IMAGES_ONLINE_EXPERIMENT/FEMALE_CFD-WF-015-022-HO_ILL10_C1.png,./IMAGES_ONLINE_EXPERIMENT/FEMALE_CFD-WF-013-015-A_ILL10_C4.png,./IMAGES_ONLINE_EXPERIMENT/FEMALE_CFD-WF-031-009-HC_ILL10_C5.png,./IMAGES_ONLINE_EXPERIMENT/FEMALE_CFD-WF-039-032-A_ILL10_C6.png,./IMAGES_ONLINE_EXPERIMENT/FEMALE_CFD-WF-039-005-HO_ILL10.png,,
,,,,,21205,001,F,20,2026-03-24_16h03.41.307,RUN_BETA,2026.1.0,Win32,59.95203837,468.707,469.207,469.208,471.425,[0.45555552729853876],[-0.2629629770914714],[1],[0],[0],[2.2170000000000414],0,96,96,71,1,./IMAGES_ONLINE_EXPERIMENT/MALES_CFD-WM-037-025-N_ILL9_C5.png,./IMAGES_ONLINE_EXPERIMENT/MALES_CFD-WM-026-004-HC_ILL9_C1.png,./IMAGES_ONLINE_EXPERIMENT/MALES_CFD-WM-033-053-F_ILL9_C4.png,./IMAGES_ONLINE_EXPERIMENT/MALES_CFD-WM-006-039-F_ILL9_C6.png,./IMAGES_ONLINE_EXPERIMENT/MALES_CFD-WM-021-009-A_ILL9_C2.png,./IMAGES_ONLINE_EXPERIMENT/MALES_CFD-WM-031-045-A_ILL9_C3.png,./IMAGES_ONLINE_EXPERIMENT/MALES_CFD-WM-006-022-A_ILL9.png,,
,,,,,21205,001,F,20,2026-03-24_16h03.41.307,RUN_BETA,2026.1.0,Win32,59.95203837,471.426,471.925,471.93,474.475,[-0.5444444373801902],[0.26574074780499496],[1],[0],[0],[2.5439999999999827],0,97,97,93,1,./IMAGES_ONLINE_EXPERIMENT/MALES_CFD-WM-003-002-N_ILL10_C1.png,./IMAGES_ONLINE_EXPERIMENT/MALES_CFD-WM-033-014-A_ILL10_C5.png,./IMAGES_ONLINE_EXPERIMENT/MALES_CFD-WM-026-013-F_ILL10_C6.png,./IMAGES_ONLINE_EXPERIMENT/MALES_CFD-WM-023-015-F_ILL10_C2.png,./IMAGES_ONLINE_EXPERIMENT/MALES_CFD-WM-006-010-HO_ILL10_C3.png,./IMAGES_ONLINE_EXPERIMENT/MALES_CFD-WM-023-012-A_ILL10_C4.png,./IMAGES_ONLINE_EXPERIMENT/MALES_CFD-WM-026-004-HC_ILL10.png,,
,,,,,21205,001,F,20,2026-03-24_16h03.41.307,RUN_BETA,2026.1.0,Win32,59.95203837,474.476,474.974,474.977,477.49,[0.49537037037037035],[0.18981481481481483],[1],[0],[0],[2.51400000000001],0,98,98,61,1,./IMAGES_ONLINE_EXPERIMENT/FEMALE_CFD-WF-008-003-HO_ILL10_C2.png,./IMAGES_ONLINE_EXPERIMENT/FEMALE_CFD-WF-035-019-F_ILL10_C1.png,./IMAGES_ONLINE_EXPERIMENT/FEMALE_CFD-WF-009-015-F_ILL10_C3.png,./IMAGES_ONLINE_EXPERIMENT/FEMALE_CFD-WF-029-026-A_ILL10_C4.png,./IMAGES_ONLINE_EXPERIMENT/FEMALE_CFD-WF-033-005-HO_ILL10_C6.png,./IMAGES_ONLINE_EXPERIMENT/FEMALE_CFD-WF-016-015-N_ILL10_C5.png,./IMAGES_ONLINE_EXPERIMENT/FEMALE_CFD-WF-033-002-N_ILL9.png,,
,,,,,21205,001,F,20,2026-03-24_16h03.41.307,RUN_BETA,2026.1.0,Win32,59.95203837,477.491,477.991,477.993,481.124,[0.5222221657081887],[-0.32777779190628614],[1],[0],[0],[3.132000000000005],0,99,99,1,1,./IMAGES_ONLINE_EXPERIMENT/FEMALE_CFD-WF-029-002-N_ILL10_C3.png,./IMAGES_ONLINE_EXPERIMENT/FEMALE_CFD-WF-006-011-F_ILL10_C4.png,./IMAGES_ONLINE_EXPERIMENT/FEMALE_CFD-WF-022-007-HC_ILL10_C1.png,./IMAGES_ONLINE_EXPERIMENT/FEMALE_CFD-WF-033-035-F_ILL10_C6.png,./IMAGES_ONLINE_EXPERIMENT/FEMALE_CFD-WF-037-029-N_ILL10_C2.png,./IMAGES_ONLINE_EXPERIMENT/FEMALE_CFD-WF-017-023-A_ILL10_C5.png,./IMAGES_ONLINE_EXPERIMENT/FEMALE_CFD-WF-033-005-HO_ILL9.png,,
,,,,,21205,001,F,20,2026-03-24_16h03.41.307,RUN_BETA,2026.1.0,Win32,59.95203837,481.125,481.624,481.625,485.557,[-0.45277779190628614],[0.23240741093953451],[1],[0],[0],[3.9320000000000164],0,100,100,101,1,./IMAGES_ONLINE_EXPERIMENT/FEMALE_CFD-WF-014-012-A_ILL9_C1.png,./IMAGES_ONLINE_EXPERIMENT/FEMALE_CFD-WF-029-018-F_ILL9_C5.png,./IMAGES_ONLINE_EXPERIMENT/FEMALE_CFD-WF-019-032-HC_ILL9_C3.png,./IMAGES_ONLINE_EXPERIMENT/FEMALE_CFD-WF-039-005-HO_ILL9_C6.png,./IMAGES_ONLINE_EXPERIMENT/FEMALE_CFD-WF-012-004-HC_ILL9_C4.png,./IMAGES_ONLINE_EXPERIMENT/FEMALE_CFD-WF-001-003-N_ILL9_C2.png,./IMAGES_ONLINE_EXPERIMENT/FEMALE_CFD-WF-039-032-A_ILL9.png,,
,,,,,21205,001,F,20,2026-03-24_16h03.41.307,RUN_BETA,2026.1.0,Win32,59.95203837,485.558,486.057,486.06,490.458,[-0.4462963033605505],[-0.23055556968406396],[1],[0],[0],[4.399000000000001],0,101,101,81,1,./IMAGES_ONLINE_EXPERIMENT/MALES_CFD-WM-012-001-N_ILL10_C4.png,./IMAGES_ONLINE_EXPERIMENT/MALES_CFD-WM-012-005-HO_ILL10_C5.png,./IMAGES_ONLINE_EXPERIMENT/MALES_CFD-WM-028-007-HO_ILL10_C3.png,./IMAGES_ONLINE_EXPERIMENT/MALES_CFD-WM-010-020-F_ILL10_C6.png,./IMAGES_ONLINE_EXPERIMENT/MALES_CFD-WM-006-013-HC_ILL10_C2.png,./IMAGES_ONLINE_EXPERIMENT/MALES_CFD-WM-014-024-F_ILL10_C1.png,./IMAGES_ONLINE_EXPERIMENT/MALES_CFD-WM-010-016-A_ILL10.png,,
,,,,,21205,001,F,20,2026-03-24_16h03.41.307,RUN_BETA,2026.1.0,Win32,59.95203837,490.458,490.957,490.96,493.559,[-0.03425923100224248],[-0.2648148006863064],[1],[0],[0],[2.5990000000000464],0,102,102,6,1,./IMAGES_ONLINE_EXPERIMENT/MALES_CFD-WM-041-023-HC_ILL10_C6.png,./IMAGES_ONLINE_EXPERIMENT/MALES_CFD-WM-029-020-F_ILL10_C4.png,./IMAGES_ONLINE_EXPERIMENT/MALES_CFD-WM-037-025-N_ILL10_C2.png,./IMAGES_ONLINE_EXPERIMENT/MALES_CFD-WM-009-002-N_ILL10_C1.png,./IMAGES_ONLINE_EXPERIMENT/MALES_CFD-WM-016-008-A_ILL10_C3.png,./IMAGES_ONLINE_EXPERIMENT/MALES_CFD-WM-032-001-N_ILL10_C5.png,./IMAGES_ONLINE_EXPERIMENT/MALES_CFD-WM-041-009-A_ILL7.png,,
,,,,,21205,001,F,20,2026-03-24_16h03.41.307,RUN_BETA,2026.1.0,Win32,59.95203837,493.559,494.057,494.059,497.291,[0.49074074074074076],[-0.33148150973849827],[1],[0],[0],[3.231999999999971],0,103,103,48,1,./IMAGES_ONLINE_EXPERIMENT/FEMALE_CFD-WF-026-002-N_ILL10_C5.png,./IMAGES_ONLINE_EXPERIMENT/FEMALE_CFD-WF-027-014-A_ILL10_C1.png,./IMAGES_ONLINE_EXPERIMENT/FEMALE_CFD-WF-003-007-HC_ILL10_C2.png,./IMAGES_ONLINE_EXPERIMENT/FEMALE_CFD-WF-008-005-HC_ILL10_C3.png,./IMAGES_ONLINE_EXPERIMENT/FEMALE_CFD-WF-036-026-HO_ILL10_C4.png,./IMAGES_ONLINE_EXPERIMENT/FEMALE_CFD-WF-037-016-A_ILL10_C6.png,./IMAGES_ONLINE_EXPERIMENT/FEMALE_CFD-WF-037-034-HC_ILL7.png,,
,,,,,21205,001,F,20,2026-03-24_16h03.41.307,RUN_BETA,2026.1.0,Win32,59.95203837,497.292,497.792,497.795,501.508,[-0.4694444515086986],[-0.2250000282570168],[1],[0],[0],[3.713999999999942],0,104,104,66,1,./IMAGES_ONLINE_EXPERIMENT/MALES_CFD-WM-024-003-HO_ILL10_C6.png,./IMAGES_ONLINE_EXPERIMENT/MALES_CFD-WM-017-002-N_ILL10_C5.png,./IMAGES_ONLINE_EXPERIMENT/MALES_CFD-WM-015-023-F_ILL10_C4.png,./IMAGES_ONLINE_EXPERIMENT/MALES_CFD-WM-040-007-A_ILL10_C3.png,./IMAGES_ONLINE_EXPERIMENT/MALES_CFD-WM-028-019-F_ILL10_C2.png,./IMAGES_ONLINE_EXPERIMENT/MALES_CFD-WM-017-003-HC_ILL10_C1.png,./IMAGES_ONLINE_EXPERIMENT/MALES_CFD-WM-024-015-N_ILL7.png,,
,,,,,21205,001,F,20,2026-03-24_16h03.41.307,RUN_BETA,2026.1.0,Win32,59.95203837,501.51,502.008,502.009,505.009,[-0.05462964375813802],[0.19444444444444445],[1],[0],[0],[3],0,105,105,20,1,./IMAGES_ONLINE_EXPERIMENT/MALES_CFD-WM-040-033-F_ILL10_C3.png,./IMAGES_ONLINE_EXPERIMENT/MALES_CFD-WM-041-021-N_ILL10_C4.png,./IMAGES_ONLINE_EXPERIMENT/MALES_CFD-WM-019-013-A_ILL10_C1.png,./IMAGES_ONLINE_EXPERIMENT/MALES_CFD-WM-014-002-N_ILL10_C6.png,./IMAGES_ONLINE_EXPERIMENT/MALES_CFD-WM-036-037-HC_ILL10_C2.png,./IMAGES_ONLINE_EXPERIMENT/MALES_CFD-WM-009-009-A_ILL10_C5.png,./IMAGES_ONLINE_EXPERIMENT/MALES_CFD-WM-014-013-A_ILL10.png,,
,,,,,21205,001,F,20,2026-03-24_16h03.41.307,RUN_BETA,2026.1.0,Win32,59.95203837,505.012,505.509,505.513,508.826,[0.058333361590350116],[-0.23333330507631656],[1],[0],[0],[3.314999999999941],0,106,106,83,1,./IMAGES_ONLINE_EXPERIMENT/MALES_CFD-WM-032-004-HO_ILL9_C3.png,./IMAGES_ONLINE_EXPERIMENT/MALES_CFD-WM-028-005-HC_ILL9_C5.png,./IMAGES_ONLINE_EXPERIMENT/MALES_CFD-WM-016-005-HC_ILL9_C4.png,./IMAGES_ONLINE_EXPERIMENT/MALES_CFD-WM-010-004-HO_ILL9_C1.png,./IMAGES_ONLINE_EXPERIMENT/MALES_CFD-WM-019-006-HC_ILL9_C6.png,./IMAGES_ONLINE_EXPERIMENT/MALES_CFD-WM-034-030-N_ILL9_C2.png,./IMAGES_ONLINE_EXPERIMENT/MALES_CFD-WM-019-009-HO_ILL9.png,,
,,,,,21205,001,F,20,2026-03-24_16h03.41.307,RUN_BETA,2026.1.0,Win32,59.95203837,508.826,509.325,509.329,512.043,[-0.050000014128508394],[-0.23333330507631656],[1],[0],[0],[2.714999999999918],0,107,107,52,1,./IMAGES_ONLINE_EXPERIMENT/FEMALE_CFD-WF-011-006-HC_ILL7_C2.png,./IMAGES_ONLINE_EXPERIMENT/FEMALE_CFD-WF-028-019-F_ILL7_C5.png,./IMAGES_ONLINE_EXPERIMENT/FEMALE_CFD-WF-033-031-A_ILL7_C4.png,./IMAGES_ONLINE_EXPERIMENT/FEMALE_CFD-WF-037-024-F_ILL7_C1.png,./IMAGES_ONLINE_EXPERIMENT/FEMALE_CFD-WF-034-028-F_ILL7_C6.png,./IMAGES_ONLINE_EXPERIMENT/FEMALE_CFD-WF-028-025-HC_ILL7_C3.png,./IMAGES_ONLINE_EXPERIMENT/FEMALE_CFD-WF-034-006-N_ILL7.png,,
,,,,,21205,001,F,20,2026-03-24_16h03.41.307,RUN_BETA,2026.1.0,Win32,59.95203837,512.043,512.542,512.543,520.91,[0.4425926208496094],[0.160185178120931],[1],[0],[0],[8.367000000000075],0,108,108,77,1,./IMAGES_ONLINE_EXPERIMENT/FEMALE_CFD-WF-023-003-N_ILL9_C4.png,./IMAGES_ONLINE_EXPERIMENT/FEMALE_CFD-WF-031-027-N_ILL9_C6.png,./IMAGES_ONLINE_EXPERIMENT/FEMALE_CFD-WF-036-030-HC_ILL9_C2.png,./IMAGES_ONLINE_EXPERIMENT/FEMALE_CFD-WF-007-001-N_ILL9_C1.png,./IMAGES_ONLINE_EXPERIMENT/FEMALE_CFD-WF-006-011-F_ILL9_C5.png,./IMAGES_ONLINE_EXPERIMENT/FEMALE_CFD-WF-018-018-HO_ILL9_C3.png,./IMAGES_ONLINE_EXPERIMENT/FEMALE_CFD-WF-031-009-HC_ILL9.png,,
,,,,,21205,001,F,20,2026-03-24_16h03.41.307,RUN_BETA,2026.1.0,Win32,59.95203837,520.912,521.409,521.411,529.593,[-0.5],[0.21574073367648655],[1],[0],[0],[8.182999999999993],0,109,109,79,1,./IMAGES_ONLINE_EXPERIMENT/MALES_CFD-WM-020-008-A_ILL10_C6.png,./IMAGES_ONLINE_EXPERIMENT/MALES_CFD-WM-019-017-F_ILL10_C3.png,./IMAGES_ONLINE_EXPERIMENT/MALES_CFD-WM-032-001-N_ILL10_C2.png,./IMAGES_ONLINE_EXPERIMENT/MALES_CFD-WM-019-003-N_ILL10_C5.png,./IMAGES_ONLINE_EXPERIMENT/MALES_CFD-WM-001-007-HC_ILL10_C4.png,./IMAGES_ONLINE_EXPERIMENT/MALES_CFD-WM-032-021-F_ILL10_C1.png,./IMAGES_ONLINE_EXPERIMENT/MALES_CFD-WM-020-001-N_ILL9.png,,
,,,,,21205,001,F,20,2026-03-24_16h03.41.307,RUN_BETA,2026.1.0,Win32,59.95203837,529.593,530.093,530.095,535.777,[0.5574073791503906],[-0.24907408820258248],[1],[0],[0],[5.682000000000016],0,110,110,76,1,./IMAGES_ONLINE_EXPERIMENT/FEMALE_CFD-WF-030-003-HO_ILL7_C1.png,./IMAGES_ONLINE_EXPERIMENT/FEMALE_CFD-WF-038-027-HC_ILL7_C2.png,./IMAGES_ONLINE_EXPERIMENT/FEMALE_CFD-WF-023-020-HO_ILL7_C4.png,./IMAGES_ONLINE_EXPERIMENT/FEMALE_CFD-WF-001-003-N_ILL7_C5.png,./IMAGES_ONLINE_EXPERIMENT/FEMALE_CFD-WF-021-002-N_ILL7_C6.png,./IMAGES_ONLINE_EXPERIMENT/FEMALE_CFD-WF-003-004-HO_ILL7_C3.png,./IMAGES_ONLINE_EXPERIMENT/FEMALE_CFD-WF-021-018-A_ILL7.png,,
,,,,,21205,001,F,20,2026-03-24_16h03.41.307,RUN_BETA,2026.1.0,Win32,59.95203837,535.779,536.276,536.281,544.41,[-0.4694444515086986],[-0.26759260672110097],[1],[0],[0],[8.131000000000085],0,111,111,24,1,./IMAGES_ONLINE_EXPERIMENT/FEMALE_CFD-WF-037-029-N_ILL10_C4.png,./IMAGES_ONLINE_EXPERIMENT/FEMALE_CFD-WF-035-027-HO_ILL10_C2.png,./IMAGES_ONLINE_EXPERIMENT/FEMALE_CFD-WF-034-028-F_ILL10_C3.png,./IMAGES_ONLINE_EXPERIMENT/FEMALE_CFD-WF-001-016-A_ILL10_C6.png,./IMAGES_ONLINE_EXPERIMENT/FEMALE_CFD-WF-037-016-A_ILL10_C5.png,./IMAGES_ONLINE_EXPERIMENT/FEMALE_CFD-WF-016-015-N_ILL10_C1.png,./IMAGES_ONLINE_EXPERIMENT/FEMALE_CFD-WF-001-009-HO_ILL7.png,,
,,,,,21205,001,F,20,2026-03-24_16h03.41.307,RUN_BETA,2026.1.0,Win32,59.95203837,544.41,544.909,544.913,551.844,[-0.5009259117974175],[-0.29722220809371386],[1],[0],[0],[6.932000000000016],0,112,112,13,1,./IMAGES_ONLINE_EXPERIMENT/FEMALE_CFD-WF-006-003-HC_ILL10_C2.png,./IMAGES_ONLINE_EXPERIMENT/FEMALE_CFD-WF-008-003-HO_ILL10_C5.png,./IMAGES_ONLINE_EXPERIMENT/FEMALE_CFD-WF-027-021-HO_ILL10_C4.png,./IMAGES_ONLINE_EXPERIMENT/FEMALE_CFD-WF-014-012-A_ILL10_C6.png,./IMAGES_ONLINE_EXPERIMENT/FEMALE_CFD-WF-029-002-N_ILL10_C3.png,./IMAGES_ONLINE_EXPERIMENT/FEMALE_CFD-WF-037-024-F_ILL10_C1.png,./IMAGES_ONLINE_EXPERIMENT/FEMALE_CFD-WF-014-009-HC_ILL9.png,,
,,,,,21205,001,F,20,2026-03-24_16h03.41.307,RUN_BETA,2026.1.0,Win32,59.95203837,551.844,552.343,552.347,560.694,[-0.5129629770914713],[-0.21944441618742766],[1],[0],[0],[8.349000000000046],0,113,113,49,1,./IMAGES_ONLINE_EXPERIMENT/FEMALE_CFD-WF-037-029-N_ILL10_C3.png,./IMAGES_ONLINE_EXPERIMENT/FEMALE_CFD-WF-039-005-HO_ILL10_C5.png,./IMAGES_ONLINE_EXPERIMENT/FEMALE_CFD-WF-018-019-HC_ILL10_C2.png,./IMAGES_ONLINE_EXPERIMENT/FEMALE_CFD-WF-034-016-A_ILL10_C6.png,./IMAGES_ONLINE_EXPERIMENT/FEMALE_CFD-WF-006-006-HO_ILL10_C1.png,./IMAGES_ONLINE_EXPERIMENT/FEMALE_CFD-WF-007-029-A_ILL10_C4.png,./IMAGES_ONLINE_EXPERIMENT/FEMALE_CFD-WF-034-033-HO_ILL9.png,,
,,,,,21205,001,F,20,2026-03-24_16h03.41.307,RUN_BETA,2026.1.0,Win32,59.95203837,560.694,561.194,561.198,570.111,[-0.037037037037037035],[-0.22777776364926938],[1],[0],[0],[8.914000000000101],0,114,114,94,1,./IMAGES_ONLINE_EXPERIMENT/MALES_CFD-WM-033-006-HC_ILL7_C5.png,./IMAGES_ONLINE_EXPERIMENT/MALES_CFD-WM-029-009-HC_ILL7_C3.png,./IMAGES_ONLINE_EXPERIMENT/MALES_CFD-WM-039-018-N_ILL7_C4.png,./IMAGES_ONLINE_EXPERIMENT/MALES_CFD-WM-033-025-N_ILL7_C2.png,./IMAGES_ONLINE_EXPERIMENT/MALES_CFD-WM-009-014-F_ILL7_C6.png,./IMAGES_ONLINE_EXPERIMENT/MALES_CFD-WM-026-001-N_ILL7_C1.png,./IMAGES_ONLINE_EXPERIMENT/MALES_CFD-WM-009-004-HO_ILL7.png,,
,,,,,21205,001,F,20,2026-03-24_16h03.41.307,RUN_BETA,2026.1.0,Win32,59.95203837,570.113,570.611,570.615,578.144,[0.45555552729853876],[0.23981481128268772],[1],[0],[0],[7.530999999999949],0,115,115,85,1,./IMAGES_ONLINE_EXPERIMENT/FEMALE_CFD-WF-007-001-N_ILL10_C2.png,./IMAGES_ONLINE_EXPERIMENT/FEMALE_CFD-WF-025-031-F_ILL10_C6.png,./IMAGES_ONLINE_EXPERIMENT/FEMALE_CFD-WF-014-004-HO_ILL10_C3.png,./IMAGES_ONLINE_EXPERIMENT/FEMALE_CFD-WF-019-032-HC_ILL10_C1.png,./IMAGES_ONLINE_EXPERIMENT/FEMALE_CFD-WF-013-015-A_ILL10_C5.png,./IMAGES_ONLINE_EXPERIMENT/FEMALE_CFD-WF-002-008-HC_ILL10_C4.png,./IMAGES_ONLINE_EXPERIMENT/FEMALE_CFD-WF-025-023-HC_ILL9.png,,
,,,,,21205,001,F,20,2026-03-24_16h03.41.307,RUN_BETA,2026.1.0,Win32,59.95203837,578.145,578.644,578.649,583.028,[0.44814809163411456],[0.20833333333333334],[1],[0],[0],[4.380999999999972],0,116,116,28,1,./IMAGES_ONLINE_EXPERIMENT/FEMALE_CFD-WF-011-016-F_ILL7_C4.png,./IMAGES_ONLINE_EXPERIMENT/FEMALE_CFD-WF-022-017-N_ILL7_C2.png,./IMAGES_ONLINE_EXPERIMENT/FEMALE_CFD-WF-006-006-HO_ILL7_C6.png,./IMAGES_ONLINE_EXPERIMENT/FEMALE_CFD-WF-025-031-F_ILL7_C5.png,./IMAGES_ONLINE_EXPERIMENT/FEMALE_CFD-WF-020-023-HO_ILL7_C1.png,./IMAGES_ONLINE_EXPERIMENT/FEMALE_CFD-WF-035-030-HC_ILL7_C3.png,./IMAGES_ONLINE_EXPERIMENT/FEMALE_CFD-WF-006-002-N_ILL7.png,,
,,,,,21205,001,F,20,2026-03-24_16h03.41.307,RUN_BETA,2026.1.0,Win32,59.95203837,583.029,583.528,583.529,585.694,[-0.5074074003431532],[-0.2296296578866464],[1],[0],[0],[2.1650000000000773],0,117,117,32,1,./IMAGES_ONLINE_EXPERIMENT/MALES_CFD-WM-003-006-HC_ILL10_C3.png,./IMAGES_ONLINE_EXPERIMENT/MALES_CFD-WM-011-002-N_ILL10_C5.png,./IMAGES_ONLINE_EXPERIMENT/MALES_CFD-WM-017-003-HC_ILL10_C4.png,./IMAGES_ONLINE_EXPERIMENT/MALES_CFD-WM-032-004-HO_ILL10_C6.png,./IMAGES_ONLINE_EXPERIMENT/MALES_CFD-WM-022-012-F_ILL10_C1.png,./IMAGES_ONLINE_EXPERIMENT/MALES_CFD-WM-021-001-N_ILL10_C2.png,./IMAGES_ONLINE_EXPERIMENT/MALES_CFD-WM-032-001-N_ILL10.png,,
,,,,,21205,001,F,20,2026-03-24_16h03.41.307,RUN_BETA,2026.1.0,Win32,59.95203837,585.695,586.194,586.197,588.995,[0.4851851286711516],[-0.21203705116554541],[1],[0],[0],[2.798000000000002],0,118,118,70,1,./IMAGES_ONLINE_EXPERIMENT/MALES_CFD-WM-016-008-A_ILL7_C1.png,./IMAGES_ONLINE_EXPERIMENT/MALES_CFD-WM-029-009-HC_ILL7_C6.png,./IMAGES_ONLINE_EXPERIMENT/MALES_CFD-WM-036-047-F_ILL7_C3.png,./IMAGES_ONLINE_EXPERIMENT/MALES_CFD-WM-009-004-HO_ILL7_C4.png,./IMAGES_ONLINE_EXPERIMENT/MALES_CFD-WM-015-009-HC_ILL7_C2.png,./IMAGES_ONLINE_EXPERIMENT/MALES_CFD-WM-016-005-HC_ILL7_C5.png,./IMAGES_ONLINE_EXPERIMENT/MALES_CFD-WM-029-023-N_ILL7.png,,
,,,,,21205,001,F,20,2026-03-24_16h03.41.307,RUN_BETA,2026.1.0,Win32,59.95203837,588.995,589.495,589.497,591.545,[0.4592593157732928],[0.14722223635073062],[1],[0],[0],[2.048000000000002],0,119,119,59,1,./IMAGES_ONLINE_EXPERIMENT/MALES_CFD-WM-010-004-HO_ILL9_C4.png,./IMAGES_ONLINE_EXPERIMENT/MALES_CFD-WM-033-006-HC_ILL9_C1.png,./IMAGES_ONLINE_EXPERIMENT/MALES_CFD-WM-021-004-HO_ILL9_C2.png,./IMAGES_ONLINE_EXPERIMENT/MALES_CFD-WM-028-005-HC_ILL9_C6.png,./IMAGES_ONLINE_EXPERIMENT/MALES_CFD-WM-022-003-HC_ILL9_C5.png,./IMAGES_ONLINE_EXPERIMENT/MALES_CFD-WM-032-004-HO_ILL9_C3.png,./IMAGES_ONLINE_EXPERIMENT/MALES_CFD-WM-028-003-N_ILL9.png,,
