instructions.started,instructions.stopped,key_resp.keys,key_resp.rt,key_resp.duration,participant,session,"please enter F(female), M(male), O(other)",please enter your age,date,expName,psychopyVersion,OS,frameRate,fixation.started,fixation.stopped,trial.started,trial.stopped,mouse.x,mouse.y,mouse.leftButton,mouse.midButton,mouse.rightButton,mouse.time,trials.thisRepN,trials.thisTrialN,trials.thisN,trials.thisIndex,trials.ran,COMP1,COMP2,COMP3,COMP4,COMP5,COMP6,TEST_FACE,ILLUMINANT_TEST,ILLUMINANT_LINEUP
38.6474,57.5435,space,18.8586,,21236,001,F,20,2026-03-23_12h22.25.920,RUN_BETA,2026.1.0,Win32,59.88023952,,,,,,,,,,,,,,,,,,,,,,,,
,,,,,21236,001,F,20,2026-03-23_12h22.25.920,RUN_BETA,2026.1.0,Win32,59.88023952,57.577,58.0434,58.0456,63.8076,[0.47777783429181137],[-0.2925925784640842],[1],[0],[0],[5.762500000000003],0,0,0,48,1,./IMAGES_ONLINE_EXPERIMENT/FEMALE_CFD-WF-026-002-N_ILL10_C5.png,./IMAGES_ONLINE_EXPERIMENT/FEMALE_CFD-WF-027-014-A_ILL10_C1.png,./IMAGES_ONLINE_EXPERIMENT/FEMALE_CFD-WF-003-007-HC_ILL10_C2.png,./IMAGES_ONLINE_EXPERIMENT/FEMALE_CFD-WF-008-005-HC_ILL10_C3.png,./IMAGES_ONLINE_EXPERIMENT/FEMALE_CFD-WF-036-026-HO_ILL10_C4.png,./IMAGES_ONLINE_EXPERIMENT/FEMALE_CFD-WF-037-016-A_ILL10_C6.png,./IMAGES_ONLINE_EXPERIMENT/FEMALE_CFD-WF-037-034-HC_ILL7.png,,
,,,,,21236,001,F,20,2026-03-23_12h22.25.920,RUN_BETA,2026.1.0,Win32,59.88023952,63.8086,64.3079,64.3095,72.4883,[-0.535185178120931],[0.25185184125547055],[1],[0],[0],[8.179000000000002],0,1,1,19,1,./IMAGES_ONLINE_EXPERIMENT/MALES_CFD-WM-016-001-N_ILL10_C2.png,./IMAGES_ONLINE_EXPERIMENT/MALES_CFD-WM-037-060-A_ILL10_C3.png,./IMAGES_ONLINE_EXPERIMENT/MALES_CFD-WM-018-002-N_ILL10_C4.png,./IMAGES_ONLINE_EXPERIMENT/MALES_CFD-WM-034-035-HO_ILL10_C5.png,./IMAGES_ONLINE_EXPERIMENT/MALES_CFD-WM-033-007-HO_ILL10_C1.png,./IMAGES_ONLINE_EXPERIMENT/MALES_CFD-WM-011-011-A_ILL10_C6.png,./IMAGES_ONLINE_EXPERIMENT/MALES_CFD-WM-011-002-N_ILL9.png,,
,,,,,21236,001,F,20,2026-03-23_12h22.25.920,RUN_BETA,2026.1.0,Win32,59.88023952,72.4895,72.9878,72.9897,78.3029,[-0.05648146735297309],[0.24444444091231735],[1],[0],[0],[5.313799999999816],0,2,2,62,1,./IMAGES_ONLINE_EXPERIMENT/FEMALE_CFD-WF-016-017-HC_ILL10_C3.png,./IMAGES_ONLINE_EXPERIMENT/FEMALE_CFD-WF-011-006-HC_ILL10_C6.png,./IMAGES_ONLINE_EXPERIMENT/FEMALE_CFD-WF-010-014-A_ILL10_C2.png,./IMAGES_ONLINE_EXPERIMENT/FEMALE_CFD-WF-030-031-HC_ILL10_C1.png,./IMAGES_ONLINE_EXPERIMENT/FEMALE_CFD-WF-037-016-A_ILL10_C5.png,./IMAGES_ONLINE_EXPERIMENT/FEMALE_CFD-WF-027-007-HC_ILL10_C4.png,./IMAGES_ONLINE_EXPERIMENT/FEMALE_CFD-WF-011-002-N_ILL10.png,,
,,,,,21236,001,F,20,2026-03-23_12h22.25.920,RUN_BETA,2026.1.0,Win32,59.88023952,78.3039,78.8035,78.8046,85.5673,[-0.42222220809371386],[-0.23888891714590568],[1],[0],[0],[6.763200000000182],0,3,3,25,1,./IMAGES_ONLINE_EXPERIMENT/FEMALE_CFD-WF-007-003-HO_ILL10_C6.png,./IMAGES_ONLINE_EXPERIMENT/FEMALE_CFD-WF-003-004-HO_ILL10_C5.png,./IMAGES_ONLINE_EXPERIMENT/FEMALE_CFD-WF-003-003-N_ILL10_C1.png,./IMAGES_ONLINE_EXPERIMENT/FEMALE_CFD-WF-030-031-HC_ILL10_C4.png,./IMAGES_ONLINE_EXPERIMENT/FEMALE_CFD-WF-031-009-HC_ILL10_C3.png,./IMAGES_ONLINE_EXPERIMENT/FEMALE_CFD-WF-018-018-HO_ILL10_C2.png,./IMAGES_ONLINE_EXPERIMENT/FEMALE_CFD-WF-007-029-A_ILL9.png,,
,,,,,21236,001,F,20,2026-03-23_12h22.25.920,RUN_BETA,2026.1.0,Win32,59.88023952,85.5681,86.0673,86.0689,93.665,[-0.036111125239619506],[0.19629630336055048],[1],[0],[0],[7.596599999999626],0,4,4,107,1,./IMAGES_ONLINE_EXPERIMENT/MALES_CFD-WM-033-025-N_ILL9_C1.png,./IMAGES_ONLINE_EXPERIMENT/MALES_CFD-WM-003-008-A_ILL9_C6.png,./IMAGES_ONLINE_EXPERIMENT/MALES_CFD-WM-024-010-A_ILL9_C5.png,./IMAGES_ONLINE_EXPERIMENT/MALES_CFD-WM-029-020-F_ILL9_C3.png,./IMAGES_ONLINE_EXPERIMENT/MALES_CFD-WM-006-039-F_ILL9_C4.png,./IMAGES_ONLINE_EXPERIMENT/MALES_CFD-WM-016-008-A_ILL9_C2.png,./IMAGES_ONLINE_EXPERIMENT/MALES_CFD-WM-003-006-HC_ILL9.png,,
,,,,,21236,001,F,20,2026-03-23_12h22.25.920,RUN_BETA,2026.1.0,Win32,59.88023952,93.6657,94.1651,94.1666,96.6136,[-0.5499999788072374],[-0.30925927338776765],[1],[0],[0],[2.4475000000000193],0,5,5,8,1,./IMAGES_ONLINE_EXPERIMENT/MALES_CFD-WM-031-045-A_ILL10_C5.png,./IMAGES_ONLINE_EXPERIMENT/MALES_CFD-WM-014-004-HO_ILL10_C1.png,./IMAGES_ONLINE_EXPERIMENT/MALES_CFD-WM-039-018-N_ILL10_C2.png,./IMAGES_ONLINE_EXPERIMENT/MALES_CFD-WM-028-019-F_ILL10_C6.png,./IMAGES_ONLINE_EXPERIMENT/MALES_CFD-WM-041-021-N_ILL10_C4.png,./IMAGES_ONLINE_EXPERIMENT/MALES_CFD-WM-023-004-HO_ILL10_C3.png,./IMAGES_ONLINE_EXPERIMENT/MALES_CFD-WM-028-005-HC_ILL10.png,,
,,,,,21236,001,F,20,2026-03-23_12h22.25.920,RUN_BETA,2026.1.0,Win32,59.88023952,96.6147,97.1134,97.1153,101.5295,[-0.5018518589161061],[0.19814812695538556],[1],[0],[0],[4.414800000000753],0,6,6,34,1,./IMAGES_ONLINE_EXPERIMENT/MALES_CFD-WM-021-004-HO_ILL7_C6.png,./IMAGES_ONLINE_EXPERIMENT/MALES_CFD-WM-040-022-N_ILL7_C1.png,./IMAGES_ONLINE_EXPERIMENT/MALES_CFD-WM-003-002-N_ILL7_C5.png,./IMAGES_ONLINE_EXPERIMENT/MALES_CFD-WM-018-007-A_ILL7_C2.png,./IMAGES_ONLINE_EXPERIMENT/MALES_CFD-WM-014-024-F_ILL7_C3.png,./IMAGES_ONLINE_EXPERIMENT/MALES_CFD-WM-035-018-A_ILL7_C4.png,./IMAGES_ONLINE_EXPERIMENT/MALES_CFD-WM-021-001-N_ILL7.png,,
,,,,,21236,001,F,20,2026-03-23_12h22.25.920,RUN_BETA,2026.1.0,Win32,59.88023952,101.5304,102.0286,102.0301,106.4607,[-0.4787037107679579],[-0.19259262084960938],[1],[0],[0],[4.430999999999983],0,7,7,59,1,./IMAGES_ONLINE_EXPERIMENT/MALES_CFD-WM-010-004-HO_ILL9_C4.png,./IMAGES_ONLINE_EXPERIMENT/MALES_CFD-WM-033-006-HC_ILL9_C1.png,./IMAGES_ONLINE_EXPERIMENT/MALES_CFD-WM-021-004-HO_ILL9_C2.png,./IMAGES_ONLINE_EXPERIMENT/MALES_CFD-WM-028-005-HC_ILL9_C6.png,./IMAGES_ONLINE_EXPERIMENT/MALES_CFD-WM-022-003-HC_ILL9_C5.png,./IMAGES_ONLINE_EXPERIMENT/MALES_CFD-WM-032-004-HO_ILL9_C3.png,./IMAGES_ONLINE_EXPERIMENT/MALES_CFD-WM-028-003-N_ILL9.png,,
,,,,,21236,001,F,20,2026-03-23_12h22.25.920,RUN_BETA,2026.1.0,Win32,59.88023952,106.4614,106.9609,106.9622,111.9257,[-0.5287036895751953],[0.18518518518518517],[1],[0],[0],[4.963799999999793],0,8,8,22,1,./IMAGES_ONLINE_EXPERIMENT/MALES_CFD-WM-010-007-HC_ILL7_C1.png,./IMAGES_ONLINE_EXPERIMENT/MALES_CFD-WM-040-033-F_ILL7_C5.png,./IMAGES_ONLINE_EXPERIMENT/MALES_CFD-WM-003-006-HC_ILL7_C2.png,./IMAGES_ONLINE_EXPERIMENT/MALES_CFD-WM-039-018-N_ILL7_C6.png,./IMAGES_ONLINE_EXPERIMENT/MALES_CFD-WM-017-011-A_ILL7_C4.png,./IMAGES_ONLINE_EXPERIMENT/MALES_CFD-WM-023-015-F_ILL7_C3.png,./IMAGES_ONLINE_EXPERIMENT/MALES_CFD-WM-039-010-A_ILL7.png,,
,,,,,21236,001,F,20,2026-03-23_12h22.25.920,RUN_BETA,2026.1.0,Win32,59.88023952,111.9269,112.4256,112.427,119.7566,[-0.07222217983669704],[-0.251851894237377],[1],[0],[0],[7.3300000000000125],0,9,9,24,1,./IMAGES_ONLINE_EXPERIMENT/FEMALE_CFD-WF-037-029-N_ILL10_C4.png,./IMAGES_ONLINE_EXPERIMENT/FEMALE_CFD-WF-035-027-HO_ILL10_C2.png,./IMAGES_ONLINE_EXPERIMENT/FEMALE_CFD-WF-034-028-F_ILL10_C3.png,./IMAGES_ONLINE_EXPERIMENT/FEMALE_CFD-WF-001-016-A_ILL10_C6.png,./IMAGES_ONLINE_EXPERIMENT/FEMALE_CFD-WF-037-016-A_ILL10_C5.png,./IMAGES_ONLINE_EXPERIMENT/FEMALE_CFD-WF-016-015-N_ILL10_C1.png,./IMAGES_ONLINE_EXPERIMENT/FEMALE_CFD-WF-001-009-HO_ILL7.png,,
,,,,,21236,001,F,20,2026-03-23_12h22.25.920,RUN_BETA,2026.1.0,Win32,59.88023952,119.758,120.2567,120.2584,124.788,[-0.026851865980360243],[-0.2657407831262659],[1],[0],[0],[4.530200000000178],0,10,10,12,1,./IMAGES_ONLINE_EXPERIMENT/FEMALE_CFD-WF-022-014-F_ILL10_C5.png,./IMAGES_ONLINE_EXPERIMENT/FEMALE_CFD-WF-026-008-A_ILL10_C1.png,./IMAGES_ONLINE_EXPERIMENT/FEMALE_CFD-WF-039-032-A_ILL10_C2.png,./IMAGES_ONLINE_EXPERIMENT/FEMALE_CFD-WF-034-028-F_ILL10_C4.png,./IMAGES_ONLINE_EXPERIMENT/FEMALE_CFD-WF-007-029-A_ILL10_C3.png,./IMAGES_ONLINE_EXPERIMENT/FEMALE_CFD-WF-029-021-HO_ILL10_C6.png,./IMAGES_ONLINE_EXPERIMENT/FEMALE_CFD-WF-029-023-HC_ILL7.png,,
,,,,,21236,001,F,20,2026-03-23_12h22.25.920,RUN_BETA,2026.1.0,Win32,59.88023952,124.7887,125.2885,125.2902,128.1871,[0.029629672015154804],[0.20185184478759766],[1],[0],[0],[2.897500000000008],0,11,11,14,1,./IMAGES_ONLINE_EXPERIMENT/FEMALE_CFD-WF-029-018-F_ILL10_C3.png,./IMAGES_ONLINE_EXPERIMENT/FEMALE_CFD-WF-034-033-HO_ILL10_C6.png,./IMAGES_ONLINE_EXPERIMENT/FEMALE_CFD-WF-028-026-A_ILL10_C1.png,./IMAGES_ONLINE_EXPERIMENT/FEMALE_CFD-WF-025-031-F_ILL10_C4.png,./IMAGES_ONLINE_EXPERIMENT/FEMALE_CFD-WF-030-031-HC_ILL10_C5.png,./IMAGES_ONLINE_EXPERIMENT/FEMALE_CFD-WF-005-027-F_ILL10_C2.png,./IMAGES_ONLINE_EXPERIMENT/FEMALE_CFD-WF-034-028-F_ILL10.png,,
,,,,,21236,001,F,20,2026-03-23_12h22.25.920,RUN_BETA,2026.1.0,Win32,59.88023952,128.1884,128.6871,128.6887,131.5528,[-0.45555556261980973],[-0.27685186598036027],[1],[0],[0],[2.8644999999999925],0,12,12,102,1,./IMAGES_ONLINE_EXPERIMENT/MALES_CFD-WM-009-006-HC_ILL10_C2.png,./IMAGES_ONLINE_EXPERIMENT/MALES_CFD-WM-039-028-F_ILL10_C4.png,./IMAGES_ONLINE_EXPERIMENT/MALES_CFD-WM-013-001-N_ILL10_C3.png,./IMAGES_ONLINE_EXPERIMENT/MALES_CFD-WM-011-006-HC_ILL10_C1.png,./IMAGES_ONLINE_EXPERIMENT/MALES_CFD-WM-003-006-HC_ILL10_C6.png,./IMAGES_ONLINE_EXPERIMENT/MALES_CFD-WM-017-003-HC_ILL10_C5.png,./IMAGES_ONLINE_EXPERIMENT/MALES_CFD-WM-003-008-A_ILL7.png,,
,,,,,21236,001,F,20,2026-03-23_12h22.25.920,RUN_BETA,2026.1.0,Win32,59.88023952,131.5543,132.0523,132.0546,134.4351,[0.06944444444444445],[-0.30833336159035013],[1],[0],[0],[2.3815999999996222],0,13,13,2,1,./IMAGES_ONLINE_EXPERIMENT/FEMALE_CFD-WF-009-006-HC_ILL10_C1.png,./IMAGES_ONLINE_EXPERIMENT/FEMALE_CFD-WF-017-003-N_ILL10_C5.png,./IMAGES_ONLINE_EXPERIMENT/FEMALE_CFD-WF-029-026-A_ILL10_C2.png,./IMAGES_ONLINE_EXPERIMENT/FEMALE_CFD-WF-024-031-F_ILL10_C3.png,./IMAGES_ONLINE_EXPERIMENT/FEMALE_CFD-WF-026-008-A_ILL10_C6.png,./IMAGES_ONLINE_EXPERIMENT/FEMALE_CFD-WF-002-033-A_ILL10_C4.png,./IMAGES_ONLINE_EXPERIMENT/FEMALE_CFD-WF-026-002-N_ILL10.png,,
,,,,,21236,001,F,20,2026-03-23_12h22.25.920,RUN_BETA,2026.1.0,Win32,59.88023952,134.4365,134.9354,134.9369,139.6003,[-0.4703703633061162],[-0.3675926349781178],[1],[0],[0],[4.663900000000382],0,14,14,66,1,./IMAGES_ONLINE_EXPERIMENT/MALES_CFD-WM-024-003-HO_ILL10_C6.png,./IMAGES_ONLINE_EXPERIMENT/MALES_CFD-WM-017-002-N_ILL10_C5.png,./IMAGES_ONLINE_EXPERIMENT/MALES_CFD-WM-015-023-F_ILL10_C4.png,./IMAGES_ONLINE_EXPERIMENT/MALES_CFD-WM-040-007-A_ILL10_C3.png,./IMAGES_ONLINE_EXPERIMENT/MALES_CFD-WM-028-019-F_ILL10_C2.png,./IMAGES_ONLINE_EXPERIMENT/MALES_CFD-WM-017-003-HC_ILL10_C1.png,./IMAGES_ONLINE_EXPERIMENT/MALES_CFD-WM-024-015-N_ILL7.png,,
,,,,,21236,001,F,20,2026-03-23_12h22.25.920,RUN_BETA,2026.1.0,Win32,59.88023952,139.6016,140.1003,140.1022,143.5489,[0.5249999717429832],[-0.21574076899775751],[1],[0],[0],[3.447400000000357],0,15,15,78,1,./IMAGES_ONLINE_EXPERIMENT/MALES_CFD-WM-024-019-F_ILL10_C1.png,./IMAGES_ONLINE_EXPERIMENT/MALES_CFD-WM-028-005-HC_ILL10_C4.png,./IMAGES_ONLINE_EXPERIMENT/MALES_CFD-WM-039-018-N_ILL10_C5.png,./IMAGES_ONLINE_EXPERIMENT/MALES_CFD-WM-025-022-F_ILL10_C6.png,./IMAGES_ONLINE_EXPERIMENT/MALES_CFD-WM-003-003-HO_ILL10_C3.png,./IMAGES_ONLINE_EXPERIMENT/MALES_CFD-WM-001-011-HO_ILL10_C2.png,./IMAGES_ONLINE_EXPERIMENT/MALES_CFD-WM-025-008-A_ILL7.png,,
,,,,,21236,001,F,20,2026-03-23_12h22.25.920,RUN_BETA,2026.1.0,Win32,59.88023952,143.5498,144.0487,144.0505,146.648,[-0.46296296296296297],[0.2537037001715766],[1],[0],[0],[2.598000000000013],0,16,16,57,1,./IMAGES_ONLINE_EXPERIMENT/MALES_CFD-WM-025-002-N_ILL10_C4.png,./IMAGES_ONLINE_EXPERIMENT/MALES_CFD-WM-006-013-HC_ILL10_C2.png,./IMAGES_ONLINE_EXPERIMENT/MALES_CFD-WM-013-001-N_ILL10_C6.png,./IMAGES_ONLINE_EXPERIMENT/MALES_CFD-WM-014-002-N_ILL10_C5.png,./IMAGES_ONLINE_EXPERIMENT/MALES_CFD-WM-020-003-HO_ILL10_C1.png,./IMAGES_ONLINE_EXPERIMENT/MALES_CFD-WM-006-002-N_ILL10_C3.png,./IMAGES_ONLINE_EXPERIMENT/MALES_CFD-WM-013-015-A_ILL10.png,,
,,,,,21236,001,F,20,2026-03-23_12h22.25.920,RUN_BETA,2026.1.0,Win32,59.88023952,146.6492,147.148,147.1494,152.6296,[0.519444500958478],[-0.3148148148148148],[1],[0],[0],[5.48060000000055],0,17,17,118,1,./IMAGES_ONLINE_EXPERIMENT/MALES_CFD-WM-021-009-A_ILL7_C3.png,./IMAGES_ONLINE_EXPERIMENT/MALES_CFD-WM-034-027-F_ILL7_C2.png,./IMAGES_ONLINE_EXPERIMENT/MALES_CFD-WM-009-014-F_ILL7_C4.png,./IMAGES_ONLINE_EXPERIMENT/MALES_CFD-WM-029-029-HO_ILL7_C5.png,./IMAGES_ONLINE_EXPERIMENT/MALES_CFD-WM-034-032-HC_ILL7_C1.png,./IMAGES_ONLINE_EXPERIMENT/MALES_CFD-WM-039-004-HC_ILL7_C6.png,./IMAGES_ONLINE_EXPERIMENT/MALES_CFD-WM-039-028-F_ILL7.png,,
,,,,,21236,001,F,20,2026-03-23_12h22.25.920,RUN_BETA,2026.1.0,Win32,59.88023952,152.6312,153.1299,153.1316,156.6959,[0.5120370652940538],[0.18518518518518517],[1],[0],[0],[3.5649000000003923],0,18,18,71,1,./IMAGES_ONLINE_EXPERIMENT/MALES_CFD-WM-037-025-N_ILL9_C5.png,./IMAGES_ONLINE_EXPERIMENT/MALES_CFD-WM-026-004-HC_ILL9_C1.png,./IMAGES_ONLINE_EXPERIMENT/MALES_CFD-WM-033-053-F_ILL9_C4.png,./IMAGES_ONLINE_EXPERIMENT/MALES_CFD-WM-006-039-F_ILL9_C6.png,./IMAGES_ONLINE_EXPERIMENT/MALES_CFD-WM-021-009-A_ILL9_C2.png,./IMAGES_ONLINE_EXPERIMENT/MALES_CFD-WM-031-045-A_ILL9_C3.png,./IMAGES_ONLINE_EXPERIMENT/MALES_CFD-WM-006-022-A_ILL9.png,,
,,,,,21236,001,F,20,2026-03-23_12h22.25.920,RUN_BETA,2026.1.0,Win32,59.88023952,156.6966,157.1947,157.1968,161.0769,[0.48425928751627606],[-0.32777779190628614],[1],[0],[0],[3.8807999999997946],0,19,19,99,1,./IMAGES_ONLINE_EXPERIMENT/FEMALE_CFD-WF-010-013-F_ILL10_C1.png,./IMAGES_ONLINE_EXPERIMENT/FEMALE_CFD-WF-007-005-HC_ILL10_C2.png,./IMAGES_ONLINE_EXPERIMENT/FEMALE_CFD-WF-038-030-A_ILL10_C3.png,./IMAGES_ONLINE_EXPERIMENT/FEMALE_CFD-WF-020-012-A_ILL10_C4.png,./IMAGES_ONLINE_EXPERIMENT/FEMALE_CFD-WF-028-023-N_ILL10_C5.png,./IMAGES_ONLINE_EXPERIMENT/FEMALE_CFD-WF-015-006-N_ILL10_C6.png,./IMAGES_ONLINE_EXPERIMENT/FEMALE_CFD-WF-015-022-HO_ILL10.png,,
,,,,,21236,001,F,20,2026-03-23_12h22.25.920,RUN_BETA,2026.1.0,Win32,59.88023952,161.0782,161.577,161.5786,166.0084,[0.004629629629629629],[-0.2472222646077474],[1],[0],[0],[4.430300000000756],0,20,20,52,1,./IMAGES_ONLINE_EXPERIMENT/FEMALE_CFD-WF-011-006-HC_ILL7_C2.png,./IMAGES_ONLINE_EXPERIMENT/FEMALE_CFD-WF-028-019-F_ILL7_C5.png,./IMAGES_ONLINE_EXPERIMENT/FEMALE_CFD-WF-033-031-A_ILL7_C4.png,./IMAGES_ONLINE_EXPERIMENT/FEMALE_CFD-WF-037-024-F_ILL7_C1.png,./IMAGES_ONLINE_EXPERIMENT/FEMALE_CFD-WF-034-028-F_ILL7_C6.png,./IMAGES_ONLINE_EXPERIMENT/FEMALE_CFD-WF-028-025-HC_ILL7_C3.png,./IMAGES_ONLINE_EXPERIMENT/FEMALE_CFD-WF-034-006-N_ILL7.png,,
,,,,,21236,001,F,20,2026-03-23_12h22.25.920,RUN_BETA,2026.1.0,Win32,59.88023952,166.01,166.5084,166.5099,177.8714,[0.0888888747603805],[0.22870369310732241],[1],[0],[0],[11.361999999999995],0,21,21,113,1,./IMAGES_ONLINE_EXPERIMENT/FEMALE_CFD-WF-010-014-A_ILL9_C1.png,./IMAGES_ONLINE_EXPERIMENT/FEMALE_CFD-WF-014-002-N_ILL9_C5.png,./IMAGES_ONLINE_EXPERIMENT/FEMALE_CFD-WF-025-031-F_ILL9_C4.png,./IMAGES_ONLINE_EXPERIMENT/FEMALE_CFD-WF-033-041-HC_ILL9_C2.png,./IMAGES_ONLINE_EXPERIMENT/FEMALE_CFD-WF-036-026-HO_ILL9_C6.png,./IMAGES_ONLINE_EXPERIMENT/FEMALE_CFD-WF-022-017-N_ILL9_C3.png,./IMAGES_ONLINE_EXPERIMENT/FEMALE_CFD-WF-036-030-HC_ILL9.png,,
,,,,,21236,001,F,20,2026-03-23_12h22.25.920,RUN_BETA,2026.1.0,Win32,59.88023952,177.8724,178.3711,178.3735,181.9199,[-0.5703703562418619],[0.25],[1],[0],[0],[3.5475000000000136],0,22,22,79,1,./IMAGES_ONLINE_EXPERIMENT/MALES_CFD-WM-020-008-A_ILL10_C6.png,./IMAGES_ONLINE_EXPERIMENT/MALES_CFD-WM-019-017-F_ILL10_C3.png,./IMAGES_ONLINE_EXPERIMENT/MALES_CFD-WM-032-001-N_ILL10_C2.png,./IMAGES_ONLINE_EXPERIMENT/MALES_CFD-WM-019-003-N_ILL10_C5.png,./IMAGES_ONLINE_EXPERIMENT/MALES_CFD-WM-001-007-HC_ILL10_C4.png,./IMAGES_ONLINE_EXPERIMENT/MALES_CFD-WM-032-021-F_ILL10_C1.png,./IMAGES_ONLINE_EXPERIMENT/MALES_CFD-WM-020-001-N_ILL9.png,,
,,,,,21236,001,F,20,2026-03-23_12h22.25.920,RUN_BETA,2026.1.0,Win32,59.88023952,181.9207,182.4207,182.422,185.4689,[-0.5083333121405708],[-0.27314814814814814],[1],[0],[0],[3.04740000000038],0,23,23,82,1,./IMAGES_ONLINE_EXPERIMENT/MALES_CFD-WM-016-005-HC_ILL7_C3.png,./IMAGES_ONLINE_EXPERIMENT/MALES_CFD-WM-034-035-HO_ILL7_C1.png,./IMAGES_ONLINE_EXPERIMENT/MALES_CFD-WM-033-007-HO_ILL7_C6.png,./IMAGES_ONLINE_EXPERIMENT/MALES_CFD-WM-024-007-HC_ILL7_C2.png,./IMAGES_ONLINE_EXPERIMENT/MALES_CFD-WM-010-007-HC_ILL7_C4.png,./IMAGES_ONLINE_EXPERIMENT/MALES_CFD-WM-015-017-A_ILL7_C5.png,./IMAGES_ONLINE_EXPERIMENT/MALES_CFD-WM-033-025-N_ILL7.png,,
,,,,,21236,001,F,20,2026-03-23_12h22.25.920,RUN_BETA,2026.1.0,Win32,59.88023952,185.4698,185.9685,185.9698,189.5846,[0.47777783429181137],[-0.2462962821677879],[1],[0],[0],[3.6152000000001863],0,24,24,88,1,./IMAGES_ONLINE_EXPERIMENT/FEMALE_CFD-WF-027-021-HO_ILL7_C4.png,./IMAGES_ONLINE_EXPERIMENT/FEMALE_CFD-WF-039-005-HO_ILL7_C5.png,./IMAGES_ONLINE_EXPERIMENT/FEMALE_CFD-WF-023-020-HO_ILL7_C3.png,./IMAGES_ONLINE_EXPERIMENT/FEMALE_CFD-WF-005-013-HO_ILL7_C2.png,./IMAGES_ONLINE_EXPERIMENT/FEMALE_CFD-WF-016-021-A_ILL7_C1.png,./IMAGES_ONLINE_EXPERIMENT/FEMALE_CFD-WF-009-004-HO_ILL7_C6.png,./IMAGES_ONLINE_EXPERIMENT/FEMALE_CFD-WF-009-006-HC_ILL7.png,,
,,,,,21236,001,F,20,2026-03-23_12h22.25.920,RUN_BETA,2026.1.0,Win32,59.88023952,189.5861,190.0846,190.0867,193.4834,[0.06111109698260272],[-0.26759260672110097],[1],[0],[0],[3.3972000000001685],0,25,25,35,1,./IMAGES_ONLINE_EXPERIMENT/MALES_CFD-WM-006-022-A_ILL9_C2.png,./IMAGES_ONLINE_EXPERIMENT/MALES_CFD-WM-013-015-A_ILL9_C3.png,./IMAGES_ONLINE_EXPERIMENT/MALES_CFD-WM-001-011-HO_ILL9_C5.png,./IMAGES_ONLINE_EXPERIMENT/MALES_CFD-WM-023-004-HO_ILL9_C1.png,./IMAGES_ONLINE_EXPERIMENT/MALES_CFD-WM-020-005-HC_ILL9_C6.png,./IMAGES_ONLINE_EXPERIMENT/MALES_CFD-WM-029-020-F_ILL9_C4.png,./IMAGES_ONLINE_EXPERIMENT/MALES_CFD-WM-020-012-F_ILL9.png,,
,,,,,21236,001,F,20,2026-03-23_12h22.25.920,RUN_BETA,2026.1.0,Win32,59.88023952,193.4841,193.9832,193.9849,196.7653,[0.44166663840964987],[-0.3101851851851852],[1],[0],[0],[2.781000000000006],0,26,26,18,1,./IMAGES_ONLINE_EXPERIMENT/MALES_CFD-WM-022-003-HC_ILL10_C5.png,./IMAGES_ONLINE_EXPERIMENT/MALES_CFD-WM-014-004-HO_ILL10_C4.png,./IMAGES_ONLINE_EXPERIMENT/MALES_CFD-WM-038-005-HO_ILL10_C3.png,./IMAGES_ONLINE_EXPERIMENT/MALES_CFD-WM-037-033-HC_ILL10_C2.png,./IMAGES_ONLINE_EXPERIMENT/MALES_CFD-WM-019-009-HO_ILL10_C1.png,./IMAGES_ONLINE_EXPERIMENT/MALES_CFD-WM-021-006-HC_ILL10_C6.png,./IMAGES_ONLINE_EXPERIMENT/MALES_CFD-WM-021-009-A_ILL7.png,,
,,,,,21236,001,F,20,2026-03-23_12h22.25.920,RUN_BETA,2026.1.0,Win32,59.88023952,196.7666,197.2658,197.267,202.5636,[-0.4777777636492694],[-0.2564815238670067],[1],[0],[0],[5.296999999999997],0,27,27,27,1,./IMAGES_ONLINE_EXPERIMENT/FEMALE_CFD-WF-014-009-HC_ILL10_C5.png,./IMAGES_ONLINE_EXPERIMENT/FEMALE_CFD-WF-011-003-HO_ILL10_C3.png,./IMAGES_ONLINE_EXPERIMENT/FEMALE_CFD-WF-023-026-F_ILL10_C1.png,./IMAGES_ONLINE_EXPERIMENT/FEMALE_CFD-WF-003-007-HC_ILL10_C6.png,./IMAGES_ONLINE_EXPERIMENT/FEMALE_CFD-WF-021-016-HO_ILL10_C4.png,./IMAGES_ONLINE_EXPERIMENT/FEMALE_CFD-WF-012-012-A_ILL10_C2.png,./IMAGES_ONLINE_EXPERIMENT/FEMALE_CFD-WF-003-004-HO_ILL10.png,,
,,,,,21236,001,F,20,2026-03-23_12h22.25.920,RUN_BETA,2026.1.0,Win32,59.88023952,202.5645,203.0636,203.0651,209.5114,[-0.041666666666666664],[0.21296296296296297],[1],[0],[0],[6.446700000000192],0,28,28,0,1,./IMAGES_ONLINE_EXPERIMENT/FEMALE_CFD-WF-035-027-HO_ILL10_C2.png,./IMAGES_ONLINE_EXPERIMENT/FEMALE_CFD-WF-039-005-HO_ILL10_C4.png,./IMAGES_ONLINE_EXPERIMENT/FEMALE_CFD-WF-006-003-HC_ILL10_C5.png,./IMAGES_ONLINE_EXPERIMENT/FEMALE_CFD-WF-010-013-F_ILL10_C3.png,./IMAGES_ONLINE_EXPERIMENT/FEMALE_CFD-WF-033-035-F_ILL10_C1.png,./IMAGES_ONLINE_EXPERIMENT/FEMALE_CFD-WF-005-022-A_ILL10_C6.png,./IMAGES_ONLINE_EXPERIMENT/FEMALE_CFD-WF-005-016-HC_ILL7.png,,
,,,,,21236,001,F,20,2026-03-23_12h22.25.920,RUN_BETA,2026.1.0,Win32,59.88023952,209.5122,210.0112,210.0127,216.1262,[-0.535185178120931],[-0.2287037460892289],[1],[0],[0],[6.113999999999976],0,29,29,81,1,./IMAGES_ONLINE_EXPERIMENT/MALES_CFD-WM-012-001-N_ILL10_C4.png,./IMAGES_ONLINE_EXPERIMENT/MALES_CFD-WM-012-005-HO_ILL10_C5.png,./IMAGES_ONLINE_EXPERIMENT/MALES_CFD-WM-028-007-HO_ILL10_C3.png,./IMAGES_ONLINE_EXPERIMENT/MALES_CFD-WM-010-020-F_ILL10_C6.png,./IMAGES_ONLINE_EXPERIMENT/MALES_CFD-WM-006-013-HC_ILL10_C2.png,./IMAGES_ONLINE_EXPERIMENT/MALES_CFD-WM-014-024-F_ILL10_C1.png,./IMAGES_ONLINE_EXPERIMENT/MALES_CFD-WM-010-016-A_ILL10.png,,
,,,,,21236,001,F,20,2026-03-23_12h22.25.920,RUN_BETA,2026.1.0,Win32,59.88023952,216.1271,216.6262,216.6275,220.4247,[0.03796294883445457],[0.213888892421016],[1],[0],[0],[3.7975000000000136],0,30,30,103,1,./IMAGES_ONLINE_EXPERIMENT/MALES_CFD-WM-039-018-N_ILL10_C2.png,./IMAGES_ONLINE_EXPERIMENT/MALES_CFD-WM-019-013-A_ILL10_C6.png,./IMAGES_ONLINE_EXPERIMENT/MALES_CFD-WM-020-001-N_ILL10_C5.png,./IMAGES_ONLINE_EXPERIMENT/MALES_CFD-WM-026-019-A_ILL10_C1.png,./IMAGES_ONLINE_EXPERIMENT/MALES_CFD-WM-041-023-HC_ILL10_C4.png,./IMAGES_ONLINE_EXPERIMENT/MALES_CFD-WM-017-002-N_ILL10_C3.png,./IMAGES_ONLINE_EXPERIMENT/MALES_CFD-WM-019-006-HC_ILL9.png,,
,,,,,21236,001,F,20,2026-03-23_12h22.25.920,RUN_BETA,2026.1.0,Win32,59.88023952,220.426,220.9243,220.9255,224.49,[-0.4861111111111111],[0.2648148183469419],[1],[0],[0],[3.564900000000364],0,31,31,1,1,./IMAGES_ONLINE_EXPERIMENT/FEMALE_CFD-WF-029-002-N_ILL10_C3.png,./IMAGES_ONLINE_EXPERIMENT/FEMALE_CFD-WF-006-011-F_ILL10_C4.png,./IMAGES_ONLINE_EXPERIMENT/FEMALE_CFD-WF-022-007-HC_ILL10_C1.png,./IMAGES_ONLINE_EXPERIMENT/FEMALE_CFD-WF-033-035-F_ILL10_C6.png,./IMAGES_ONLINE_EXPERIMENT/FEMALE_CFD-WF-037-029-N_ILL10_C2.png,./IMAGES_ONLINE_EXPERIMENT/FEMALE_CFD-WF-017-023-A_ILL10_C5.png,./IMAGES_ONLINE_EXPERIMENT/FEMALE_CFD-WF-033-005-HO_ILL9.png,,
,,,,,21236,001,F,20,2026-03-23_12h22.25.920,RUN_BETA,2026.1.0,Win32,59.88023952,224.4912,224.9901,224.9914,230.0548,[0.009259259259259259],[-0.232407393278899],[1],[0],[0],[5.063799999999844],0,32,32,109,1,./IMAGES_ONLINE_EXPERIMENT/FEMALE_CFD-WF-033-031-A_ILL10_C5.png,./IMAGES_ONLINE_EXPERIMENT/FEMALE_CFD-WF-034-028-F_ILL10_C4.png,./IMAGES_ONLINE_EXPERIMENT/FEMALE_CFD-WF-012-002-N_ILL10_C1.png,./IMAGES_ONLINE_EXPERIMENT/FEMALE_CFD-WF-039-005-HO_ILL10_C2.png,./IMAGES_ONLINE_EXPERIMENT/FEMALE_CFD-WF-015-023-HC_ILL10_C3.png,./IMAGES_ONLINE_EXPERIMENT/FEMALE_CFD-WF-031-045-F_ILL10_C6.png,./IMAGES_ONLINE_EXPERIMENT/FEMALE_CFD-WF-031-009-HC_ILL9.png,,
,,,,,21236,001,F,20,2026-03-23_12h22.25.920,RUN_BETA,2026.1.0,Win32,59.88023952,230.0558,230.5551,230.5565,235.3699,[-0.49259259965684676],[0.19074072661223235],[1],[0],[0],[4.813800000000754],0,33,33,93,1,./IMAGES_ONLINE_EXPERIMENT/MALES_CFD-WM-003-002-N_ILL10_C1.png,./IMAGES_ONLINE_EXPERIMENT/MALES_CFD-WM-033-014-A_ILL10_C5.png,./IMAGES_ONLINE_EXPERIMENT/MALES_CFD-WM-026-013-F_ILL10_C6.png,./IMAGES_ONLINE_EXPERIMENT/MALES_CFD-WM-023-015-F_ILL10_C2.png,./IMAGES_ONLINE_EXPERIMENT/MALES_CFD-WM-006-010-HO_ILL10_C3.png,./IMAGES_ONLINE_EXPERIMENT/MALES_CFD-WM-023-012-A_ILL10_C4.png,./IMAGES_ONLINE_EXPERIMENT/MALES_CFD-WM-026-004-HC_ILL10.png,,
,,,,,21236,001,F,20,2026-03-23_12h22.25.920,RUN_BETA,2026.1.0,Win32,59.88023952,235.371,235.8697,235.8712,238.2357,[-0.5120370299727829],[-0.25277780603479455],[1],[0],[0],[2.364799999999832],0,34,34,106,1,./IMAGES_ONLINE_EXPERIMENT/MALES_CFD-WM-032-008-HC_ILL7_C3.png,./IMAGES_ONLINE_EXPERIMENT/MALES_CFD-WM-012-026-F_ILL7_C5.png,./IMAGES_ONLINE_EXPERIMENT/MALES_CFD-WM-013-006-HO_ILL7_C2.png,./IMAGES_ONLINE_EXPERIMENT/MALES_CFD-WM-014-004-HO_ILL7_C6.png,./IMAGES_ONLINE_EXPERIMENT/MALES_CFD-WM-041-009-A_ILL7_C1.png,./IMAGES_ONLINE_EXPERIMENT/MALES_CFD-WM-023-004-HO_ILL7_C4.png,./IMAGES_ONLINE_EXPERIMENT/MALES_CFD-WM-014-002-N_ILL7.png,,
,,,,,21236,001,F,20,2026-03-23_12h22.25.920,RUN_BETA,2026.1.0,Win32,59.88023952,238.2367,238.7359,238.7379,241.5513,[0.03425930164478443],[0.2435185114542643],[1],[0],[0],[2.8141000000005647],0,35,35,83,1,./IMAGES_ONLINE_EXPERIMENT/MALES_CFD-WM-032-004-HO_ILL9_C3.png,./IMAGES_ONLINE_EXPERIMENT/MALES_CFD-WM-028-005-HC_ILL9_C5.png,./IMAGES_ONLINE_EXPERIMENT/MALES_CFD-WM-016-005-HC_ILL9_C4.png,./IMAGES_ONLINE_EXPERIMENT/MALES_CFD-WM-010-004-HO_ILL9_C1.png,./IMAGES_ONLINE_EXPERIMENT/MALES_CFD-WM-019-006-HC_ILL9_C6.png,./IMAGES_ONLINE_EXPERIMENT/MALES_CFD-WM-034-030-N_ILL9_C2.png,./IMAGES_ONLINE_EXPERIMENT/MALES_CFD-WM-019-009-HO_ILL9.png,,
,,,,,21236,001,F,20,2026-03-23_12h22.25.920,RUN_BETA,2026.1.0,Win32,59.88023952,241.5523,242.051,242.0531,246.483,[-0.4787037107679579],[0.26574073014435945],[1],[0],[0],[4.430499999999995],0,36,36,54,1,./IMAGES_ONLINE_EXPERIMENT/MALES_CFD-WM-038-011-A_ILL10_C4.png,./IMAGES_ONLINE_EXPERIMENT/MALES_CFD-WM-031-003-N_ILL10_C6.png,./IMAGES_ONLINE_EXPERIMENT/MALES_CFD-WM-009-014-F_ILL10_C5.png,./IMAGES_ONLINE_EXPERIMENT/MALES_CFD-WM-037-034-HO_ILL10_C3.png,./IMAGES_ONLINE_EXPERIMENT/MALES_CFD-WM-040-025-HC_ILL10_C1.png,./IMAGES_ONLINE_EXPERIMENT/MALES_CFD-WM-020-012-F_ILL10_C2.png,./IMAGES_ONLINE_EXPERIMENT/MALES_CFD-WM-031-004-HO_ILL7.png,,
,,,,,21236,001,F,20,2026-03-23_12h22.25.920,RUN_BETA,2026.1.0,Win32,59.88023952,246.4838,246.9832,246.9847,253.7808,[-0.017592606721100985],[-0.3148148148148148],[1],[0],[0],[6.796700000000158],0,37,37,36,1,./IMAGES_ONLINE_EXPERIMENT/FEMALE_CFD-WF-001-010-HC_ILL10_C4.png,./IMAGES_ONLINE_EXPERIMENT/FEMALE_CFD-WF-025-023-HC_ILL10_C6.png,./IMAGES_ONLINE_EXPERIMENT/FEMALE_CFD-WF-036-030-HC_ILL10_C2.png,./IMAGES_ONLINE_EXPERIMENT/FEMALE_CFD-WF-018-013-F_ILL10_C1.png,./IMAGES_ONLINE_EXPERIMENT/FEMALE_CFD-WF-006-006-HO_ILL10_C5.png,./IMAGES_ONLINE_EXPERIMENT/FEMALE_CFD-WF-009-006-HC_ILL10_C3.png,./IMAGES_ONLINE_EXPERIMENT/FEMALE_CFD-WF-025-006-HO_ILL7.png,,
,,,,,21236,001,F,20,2026-03-23_12h22.25.920,RUN_BETA,2026.1.0,Win32,59.88023952,253.7819,254.281,254.2827,257.1794,[-0.017592606721100985],[-0.3148148148148148],[1],[0],[0],[2.8973000000007687],0,38,38,43,1,./IMAGES_ONLINE_EXPERIMENT/MALES_CFD-WM-038-007-HC_ILL10_C5.png,./IMAGES_ONLINE_EXPERIMENT/MALES_CFD-WM-039-010-A_ILL10_C3.png,./IMAGES_ONLINE_EXPERIMENT/MALES_CFD-WM-031-045-A_ILL10_C1.png,./IMAGES_ONLINE_EXPERIMENT/MALES_CFD-WM-023-007-HC_ILL10_C6.png,./IMAGES_ONLINE_EXPERIMENT/MALES_CFD-WM-004-010-N_ILL10_C4.png,./IMAGES_ONLINE_EXPERIMENT/MALES_CFD-WM-003-008-A_ILL10_C2.png,./IMAGES_ONLINE_EXPERIMENT/MALES_CFD-WM-023-012-A_ILL9.png,,
,,,,,21236,001,F,20,2026-03-23_12h22.25.920,RUN_BETA,2026.1.0,Win32,59.88023952,257.1801,257.6799,257.6814,262.8112,[0.5648148148148148],[0.24629629982842338],[1],[0],[0],[5.13039999999944],0,39,39,75,1,./IMAGES_ONLINE_EXPERIMENT/FEMALE_CFD-WF-014-023-F_ILL10_C2.png,./IMAGES_ONLINE_EXPERIMENT/FEMALE_CFD-WF-028-023-N_ILL10_C6.png,./IMAGES_ONLINE_EXPERIMENT/FEMALE_CFD-WF-018-013-F_ILL10_C3.png,./IMAGES_ONLINE_EXPERIMENT/FEMALE_CFD-WF-010-008-HC_ILL10_C1.png,./IMAGES_ONLINE_EXPERIMENT/FEMALE_CFD-WF-009-006-HC_ILL10_C5.png,./IMAGES_ONLINE_EXPERIMENT/FEMALE_CFD-WF-021-018-A_ILL10_C4.png,./IMAGES_ONLINE_EXPERIMENT/FEMALE_CFD-WF-028-026-A_ILL10.png,,
,,,,,21236,001,F,20,2026-03-23_12h22.25.920,RUN_BETA,2026.1.0,Win32,59.88023952,262.8125,263.3118,263.3136,265.9437,[-0.5453703491776077],[0.15925926632351345],[1],[0],[0],[2.6303999999994403],0,40,40,55,1,./IMAGES_ONLINE_EXPERIMENT/MALES_CFD-WM-003-006-HC_ILL10_C6.png,./IMAGES_ONLINE_EXPERIMENT/MALES_CFD-WM-018-005-HC_ILL10_C1.png,./IMAGES_ONLINE_EXPERIMENT/MALES_CFD-WM-011-006-HC_ILL10_C2.png,./IMAGES_ONLINE_EXPERIMENT/MALES_CFD-WM-018-007-A_ILL10_C3.png,./IMAGES_ONLINE_EXPERIMENT/MALES_CFD-WM-038-018-F_ILL10_C5.png,./IMAGES_ONLINE_EXPERIMENT/MALES_CFD-WM-009-009-A_ILL10_C4.png,./IMAGES_ONLINE_EXPERIMENT/MALES_CFD-WM-003-003-HO_ILL9.png,,
,,,,,21236,001,F,20,2026-03-23_12h22.25.920,RUN_BETA,2026.1.0,Win32,59.88023952,265.9449,266.4437,266.4453,268.5925,[-0.019444430315936054],[-0.2638888888888889],[1],[0],[0],[2.1477999999998474],0,41,41,67,1,./IMAGES_ONLINE_EXPERIMENT/MALES_CFD-WM-013-015-A_ILL10_C2.png,./IMAGES_ONLINE_EXPERIMENT/MALES_CFD-WM-009-014-F_ILL10_C4.png,./IMAGES_ONLINE_EXPERIMENT/MALES_CFD-WM-013-019-F_ILL10_C1.png,./IMAGES_ONLINE_EXPERIMENT/MALES_CFD-WM-018-005-HC_ILL10_C3.png,./IMAGES_ONLINE_EXPERIMENT/MALES_CFD-WM-040-023-HO_ILL10_C6.png,./IMAGES_ONLINE_EXPERIMENT/MALES_CFD-WM-014-008-HC_ILL10_C5.png,./IMAGES_ONLINE_EXPERIMENT/MALES_CFD-WM-040-007-A_ILL9.png,,
,,,,,21236,001,F,20,2026-03-23_12h22.25.920,RUN_BETA,2026.1.0,Win32,59.88023952,268.5934,269.0927,269.0946,274.6742,[0.025000042385525174],[0.160185178120931],[1],[0],[0],[5.580400000000395],0,42,42,16,1,./IMAGES_ONLINE_EXPERIMENT/FEMALE_CFD-WF-001-027-F_ILL7_C6.png,./IMAGES_ONLINE_EXPERIMENT/FEMALE_CFD-WF-036-026-HO_ILL7_C2.png,./IMAGES_ONLINE_EXPERIMENT/FEMALE_CFD-WF-013-003-N_ILL7_C5.png,./IMAGES_ONLINE_EXPERIMENT/FEMALE_CFD-WF-019-032-HC_ILL7_C3.png,./IMAGES_ONLINE_EXPERIMENT/FEMALE_CFD-WF-005-016-HC_ILL7_C1.png,./IMAGES_ONLINE_EXPERIMENT/FEMALE_CFD-WF-020-027-F_ILL7_C4.png,./IMAGES_ONLINE_EXPERIMENT/FEMALE_CFD-WF-001-003-N_ILL7.png,,
,,,,,21236,001,F,20,2026-03-23_12h22.25.920,RUN_BETA,2026.1.0,Win32,59.88023952,274.6755,275.1743,275.1764,277.14,[0.025000042385525174],[0.160185178120931],[1],[0],[0],[1.964300000000776],0,43,43,68,1,./IMAGES_ONLINE_EXPERIMENT/MALES_CFD-WM-033-025-N_ILL10_C2.png,./IMAGES_ONLINE_EXPERIMENT/MALES_CFD-WM-039-008-HO_ILL10_C6.png,./IMAGES_ONLINE_EXPERIMENT/MALES_CFD-WM-020-005-HC_ILL10_C5.png,./IMAGES_ONLINE_EXPERIMENT/MALES_CFD-WM-024-010-A_ILL10_C1.png,./IMAGES_ONLINE_EXPERIMENT/MALES_CFD-WM-020-012-F_ILL10_C3.png,./IMAGES_ONLINE_EXPERIMENT/MALES_CFD-WM-012-005-HO_ILL10_C4.png,./IMAGES_ONLINE_EXPERIMENT/MALES_CFD-WM-039-028-F_ILL10.png,,
,,,,,21236,001,F,20,2026-03-23_12h22.25.920,RUN_BETA,2026.1.0,Win32,59.88023952,277.1412,277.6404,277.6418,281.5886,[-0.4481481269553856],[0.19907407407407407],[1],[0],[0],[3.9472999999998137],0,44,44,60,1,./IMAGES_ONLINE_EXPERIMENT/FEMALE_CFD-WF-015-027-F_ILL10_C4.png,./IMAGES_ONLINE_EXPERIMENT/FEMALE_CFD-WF-031-005-HO_ILL10_C6.png,./IMAGES_ONLINE_EXPERIMENT/FEMALE_CFD-WF-027-014-A_ILL10_C1.png,./IMAGES_ONLINE_EXPERIMENT/FEMALE_CFD-WF-014-009-HC_ILL10_C5.png,./IMAGES_ONLINE_EXPERIMENT/FEMALE_CFD-WF-006-006-HO_ILL10_C2.png,./IMAGES_ONLINE_EXPERIMENT/FEMALE_CFD-WF-019-032-HC_ILL10_C3.png,./IMAGES_ONLINE_EXPERIMENT/FEMALE_CFD-WF-031-009-HC_ILL7.png,,
,,,,,21236,001,F,20,2026-03-23_12h22.25.920,RUN_BETA,2026.1.0,Win32,59.88023952,281.5896,282.0883,282.09,285.0209,[0.025925954182942707],[0.23703704056916414],[1],[0],[0],[2.931299999999851],0,45,45,90,1,./IMAGES_ONLINE_EXPERIMENT/MALES_CFD-WM-012-005-HO_ILL10_C3.png,./IMAGES_ONLINE_EXPERIMENT/MALES_CFD-WM-011-011-A_ILL10_C5.png,./IMAGES_ONLINE_EXPERIMENT/MALES_CFD-WM-039-010-A_ILL10_C1.png,./IMAGES_ONLINE_EXPERIMENT/MALES_CFD-WM-020-003-HO_ILL10_C4.png,./IMAGES_ONLINE_EXPERIMENT/MALES_CFD-WM-019-009-HO_ILL10_C2.png,./IMAGES_ONLINE_EXPERIMENT/MALES_CFD-WM-004-005-HC_ILL10_C6.png,./IMAGES_ONLINE_EXPERIMENT/MALES_CFD-WM-004-011-A_ILL7.png,,
,,,,,21236,001,F,20,2026-03-23_12h22.25.920,RUN_BETA,2026.1.0,Win32,59.88023952,285.0217,285.5212,285.5229,289.4694,[-0.46296296296296297],[-0.2657407831262659],[1],[0],[0],[3.9470000000000027],0,46,46,110,1,./IMAGES_ONLINE_EXPERIMENT/FEMALE_CFD-WF-024-003-N_ILL10_C2.png,./IMAGES_ONLINE_EXPERIMENT/FEMALE_CFD-WF-031-005-HO_ILL10_C3.png,./IMAGES_ONLINE_EXPERIMENT/FEMALE_CFD-WF-034-028-F_ILL10_C6.png,./IMAGES_ONLINE_EXPERIMENT/FEMALE_CFD-WF-014-004-HO_ILL10_C1.png,./IMAGES_ONLINE_EXPERIMENT/FEMALE_CFD-WF-013-003-N_ILL10_C4.png,./IMAGES_ONLINE_EXPERIMENT/FEMALE_CFD-WF-023-020-HO_ILL10_C5.png,./IMAGES_ONLINE_EXPERIMENT/FEMALE_CFD-WF-034-061-HC_ILL10.png,,
,,,,,21236,001,F,20,2026-03-23_12h22.25.920,RUN_BETA,2026.1.0,Win32,59.88023952,289.4704,289.9696,289.9709,294.2513,[-0.5379629488344546],[0.16944443738019024],[1],[0],[0],[4.280900000000372],0,47,47,70,1,./IMAGES_ONLINE_EXPERIMENT/MALES_CFD-WM-016-008-A_ILL7_C1.png,./IMAGES_ONLINE_EXPERIMENT/MALES_CFD-WM-029-009-HC_ILL7_C6.png,./IMAGES_ONLINE_EXPERIMENT/MALES_CFD-WM-036-047-F_ILL7_C3.png,./IMAGES_ONLINE_EXPERIMENT/MALES_CFD-WM-009-004-HO_ILL7_C4.png,./IMAGES_ONLINE_EXPERIMENT/MALES_CFD-WM-015-009-HC_ILL7_C2.png,./IMAGES_ONLINE_EXPERIMENT/MALES_CFD-WM-016-005-HC_ILL7_C5.png,./IMAGES_ONLINE_EXPERIMENT/MALES_CFD-WM-029-023-N_ILL7.png,,
,,,,,21236,001,F,20,2026-03-23_12h22.25.920,RUN_BETA,2026.1.0,Win32,59.88023952,294.2525,294.7516,294.7534,299.3496,[0.5027778060347946],[-0.2009259683114511],[1],[0],[0],[4.596799999999803],0,48,48,32,1,./IMAGES_ONLINE_EXPERIMENT/MALES_CFD-WM-003-006-HC_ILL10_C3.png,./IMAGES_ONLINE_EXPERIMENT/MALES_CFD-WM-011-002-N_ILL10_C5.png,./IMAGES_ONLINE_EXPERIMENT/MALES_CFD-WM-017-003-HC_ILL10_C4.png,./IMAGES_ONLINE_EXPERIMENT/MALES_CFD-WM-032-004-HO_ILL10_C6.png,./IMAGES_ONLINE_EXPERIMENT/MALES_CFD-WM-022-012-F_ILL10_C1.png,./IMAGES_ONLINE_EXPERIMENT/MALES_CFD-WM-021-001-N_ILL10_C2.png,./IMAGES_ONLINE_EXPERIMENT/MALES_CFD-WM-032-001-N_ILL10.png,,
,,,,,21236,001,F,20,2026-03-23_12h22.25.920,RUN_BETA,2026.1.0,Win32,59.88023952,299.3508,299.8498,299.8514,303.6484,[0.4805556403266059],[-0.21203705116554541],[1],[0],[0],[3.7975000000000136],0,49,49,104,1,./IMAGES_ONLINE_EXPERIMENT/MALES_CFD-WM-035-032-N_ILL10_C4.png,./IMAGES_ONLINE_EXPERIMENT/MALES_CFD-WM-028-003-N_ILL10_C1.png,./IMAGES_ONLINE_EXPERIMENT/MALES_CFD-WM-009-002-N_ILL10_C3.png,./IMAGES_ONLINE_EXPERIMENT/MALES_CFD-WM-037-063-F_ILL10_C2.png,./IMAGES_ONLINE_EXPERIMENT/MALES_CFD-WM-037-033-HC_ILL10_C5.png,./IMAGES_ONLINE_EXPERIMENT/MALES_CFD-WM-014-024-F_ILL10_C6.png,./IMAGES_ONLINE_EXPERIMENT/MALES_CFD-WM-014-004-HO_ILL10.png,,
,,,,,21236,001,F,20,2026-03-23_12h22.25.920,RUN_BETA,2026.1.0,Win32,59.88023952,303.6497,304.148,304.1494,306.764,[0.556481537995515],[0.18981481481481483],[1],[0],[0],[2.6152000000001863],0,50,50,50,1,./IMAGES_ONLINE_EXPERIMENT/FEMALE_CFD-WF-033-031-A_ILL10_C1.png,./IMAGES_ONLINE_EXPERIMENT/FEMALE_CFD-WF-029-023-HC_ILL10_C4.png,./IMAGES_ONLINE_EXPERIMENT/FEMALE_CFD-WF-003-004-HO_ILL10_C6.png,./IMAGES_ONLINE_EXPERIMENT/FEMALE_CFD-WF-006-011-F_ILL10_C3.png,./IMAGES_ONLINE_EXPERIMENT/FEMALE_CFD-WF-022-017-N_ILL10_C5.png,./IMAGES_ONLINE_EXPERIMENT/FEMALE_CFD-WF-029-002-N_ILL10_C2.png,./IMAGES_ONLINE_EXPERIMENT/FEMALE_CFD-WF-003-007-HC_ILL10.png,,
,,,,,21236,001,F,20,2026-03-23_12h22.25.920,RUN_BETA,2026.1.0,Win32,59.88023952,306.7649,307.264,307.2655,310.8124,[-0.5064814885457357],[0.2694444479765715],[1],[0],[0],[3.547300000000746],0,51,51,97,1,./IMAGES_ONLINE_EXPERIMENT/FEMALE_CFD-WF-029-026-A_ILL10_C1.png,./IMAGES_ONLINE_EXPERIMENT/FEMALE_CFD-WF-030-002-N_ILL10_C5.png,./IMAGES_ONLINE_EXPERIMENT/FEMALE_CFD-WF-035-019-F_ILL10_C2.png,./IMAGES_ONLINE_EXPERIMENT/FEMALE_CFD-WF-014-009-HC_ILL10_C4.png,./IMAGES_ONLINE_EXPERIMENT/FEMALE_CFD-WF-012-017-F_ILL10_C6.png,./IMAGES_ONLINE_EXPERIMENT/FEMALE_CFD-WF-037-016-A_ILL10_C3.png,./IMAGES_ONLINE_EXPERIMENT/FEMALE_CFD-WF-012-004-HC_ILL9.png,,
,,,,,21236,001,F,20,2026-03-23_12h22.25.920,RUN_BETA,2026.1.0,Win32,59.88023952,310.8133,311.3128,311.3141,314.2284,[0.036111125239619506],[-0.23518519931369358],[1],[0],[0],[2.9147999999997865],0,52,52,31,1,./IMAGES_ONLINE_EXPERIMENT/MALES_CFD-WM-034-035-HO_ILL10_C3.png,./IMAGES_ONLINE_EXPERIMENT/MALES_CFD-WM-016-005-HC_ILL10_C5.png,./IMAGES_ONLINE_EXPERIMENT/MALES_CFD-WM-040-023-HO_ILL10_C1.png,./IMAGES_ONLINE_EXPERIMENT/MALES_CFD-WM-029-009-HC_ILL10_C2.png,./IMAGES_ONLINE_EXPERIMENT/MALES_CFD-WM-004-005-HC_ILL10_C6.png,./IMAGES_ONLINE_EXPERIMENT/MALES_CFD-WM-021-009-A_ILL10_C4.png,./IMAGES_ONLINE_EXPERIMENT/MALES_CFD-WM-004-011-A_ILL9.png,,
,,,,,21236,001,F,20,2026-03-23_12h22.25.920,RUN_BETA,2026.1.0,Win32,59.88023952,314.2299,314.728,314.7308,318.0771,[0.4611111393681279],[0.16666666666666666],[1],[0],[0],[3.346799999999803],0,53,53,101,1,./IMAGES_ONLINE_EXPERIMENT/FEMALE_CFD-WF-014-012-A_ILL9_C1.png,./IMAGES_ONLINE_EXPERIMENT/FEMALE_CFD-WF-029-018-F_ILL9_C5.png,./IMAGES_ONLINE_EXPERIMENT/FEMALE_CFD-WF-019-032-HC_ILL9_C3.png,./IMAGES_ONLINE_EXPERIMENT/FEMALE_CFD-WF-039-005-HO_ILL9_C6.png,./IMAGES_ONLINE_EXPERIMENT/FEMALE_CFD-WF-012-004-HC_ILL9_C4.png,./IMAGES_ONLINE_EXPERIMENT/FEMALE_CFD-WF-001-003-N_ILL9_C2.png,./IMAGES_ONLINE_EXPERIMENT/FEMALE_CFD-WF-039-032-A_ILL9.png,,
,,,,,21236,001,F,20,2026-03-23_12h22.25.920,RUN_BETA,2026.1.0,Win32,59.88023952,318.0779,318.5767,318.5783,322.7756,[0.5296296013726128],[-0.2925925784640842],[1],[0],[0],[4.197799999999802],0,54,54,4,1,./IMAGES_ONLINE_EXPERIMENT/FEMALE_CFD-WF-010-013-F_ILL7_C1.png,./IMAGES_ONLINE_EXPERIMENT/FEMALE_CFD-WF-019-035-HO_ILL7_C4.png,./IMAGES_ONLINE_EXPERIMENT/FEMALE_CFD-WF-021-018-A_ILL7_C6.png,./IMAGES_ONLINE_EXPERIMENT/FEMALE_CFD-WF-031-045-F_ILL7_C5.png,./IMAGES_ONLINE_EXPERIMENT/FEMALE_CFD-WF-023-013-A_ILL7_C2.png,./IMAGES_ONLINE_EXPERIMENT/FEMALE_CFD-WF-011-002-N_ILL7_C3.png,./IMAGES_ONLINE_EXPERIMENT/FEMALE_CFD-WF-021-016-HO_ILL7.png,,
,,,,,21236,001,F,20,2026-03-23_12h22.25.920,RUN_BETA,2026.1.0,Win32,59.88023952,322.777,323.2755,323.2775,325.4415,[0.012962977091471354],[-0.33981485720034],[1],[0],[0],[2.164800000000753],0,55,55,23,1,./IMAGES_ONLINE_EXPERIMENT/MALES_CFD-WM-004-002-F_ILL9_C1.png,./IMAGES_ONLINE_EXPERIMENT/MALES_CFD-WM-010-007-HC_ILL9_C5.png,./IMAGES_ONLINE_EXPERIMENT/MALES_CFD-WM-033-014-A_ILL9_C6.png,./IMAGES_ONLINE_EXPERIMENT/MALES_CFD-WM-021-004-HO_ILL9_C3.png,./IMAGES_ONLINE_EXPERIMENT/MALES_CFD-WM-028-007-HO_ILL9_C4.png,./IMAGES_ONLINE_EXPERIMENT/MALES_CFD-WM-026-006-HO_ILL9_C2.png,./IMAGES_ONLINE_EXPERIMENT/MALES_CFD-WM-033-006-HC_ILL9.png,,
,,,,,21236,001,F,20,2026-03-23_12h22.25.920,RUN_BETA,2026.1.0,Win32,59.88023952,325.4428,325.9411,325.943,329.4567,[0.05370373196072049],[0.21481480421843352],[1],[0],[0],[3.5144000000003643],0,56,56,47,1,./IMAGES_ONLINE_EXPERIMENT/MALES_CFD-WM-012-026-F_ILL9_C3.png,./IMAGES_ONLINE_EXPERIMENT/MALES_CFD-WM-001-007-HC_ILL9_C4.png,./IMAGES_ONLINE_EXPERIMENT/MALES_CFD-WM-013-015-A_ILL9_C6.png,./IMAGES_ONLINE_EXPERIMENT/MALES_CFD-WM-022-008-A_ILL9_C2.png,./IMAGES_ONLINE_EXPERIMENT/MALES_CFD-WM-006-013-HC_ILL9_C1.png,./IMAGES_ONLINE_EXPERIMENT/MALES_CFD-WM-006-010-HO_ILL9_C5.png,./IMAGES_ONLINE_EXPERIMENT/MALES_CFD-WM-013-019-F_ILL9.png,,
,,,,,21236,001,F,20,2026-03-23_12h22.25.920,RUN_BETA,2026.1.0,Win32,59.88023952,329.4578,329.9571,329.9589,333.6899,[0.5481481198911313],[-0.197222250479239],[1],[0],[0],[3.7313999999994394],0,57,57,5,1,./IMAGES_ONLINE_EXPERIMENT/FEMALE_CFD-WF-007-003-HO_ILL9_C5.png,./IMAGES_ONLINE_EXPERIMENT/FEMALE_CFD-WF-022-019-HO_ILL9_C3.png,./IMAGES_ONLINE_EXPERIMENT/FEMALE_CFD-WF-002-004-N_ILL9_C2.png,./IMAGES_ONLINE_EXPERIMENT/FEMALE_CFD-WF-025-031-F_ILL9_C4.png,./IMAGES_ONLINE_EXPERIMENT/FEMALE_CFD-WF-003-004-HO_ILL9_C1.png,./IMAGES_ONLINE_EXPERIMENT/FEMALE_CFD-WF-036-023-N_ILL9_C6.png,./IMAGES_ONLINE_EXPERIMENT/FEMALE_CFD-WF-036-015-A_ILL9.png,,
,,,,,21236,001,F,20,2026-03-23_12h22.25.920,RUN_BETA,2026.1.0,Win32,59.88023952,333.6908,334.1885,334.1903,338.3041,[0.4342593440303096],[-0.29907410233109083],[1],[0],[0],[4.114500000000021],0,58,58,26,1,./IMAGES_ONLINE_EXPERIMENT/FEMALE_CFD-WF-020-012-A_ILL10_C2.png,./IMAGES_ONLINE_EXPERIMENT/FEMALE_CFD-WF-028-026-A_ILL10_C3.png,./IMAGES_ONLINE_EXPERIMENT/FEMALE_CFD-WF-015-022-HO_ILL10_C1.png,./IMAGES_ONLINE_EXPERIMENT/FEMALE_CFD-WF-013-015-A_ILL10_C4.png,./IMAGES_ONLINE_EXPERIMENT/FEMALE_CFD-WF-031-009-HC_ILL10_C5.png,./IMAGES_ONLINE_EXPERIMENT/FEMALE_CFD-WF-039-032-A_ILL10_C6.png,./IMAGES_ONLINE_EXPERIMENT/FEMALE_CFD-WF-039-005-HO_ILL10.png,,
,,,,,21236,001,F,20,2026-03-23_12h22.25.920,RUN_BETA,2026.1.0,Win32,59.88023952,338.3053,338.804,338.8057,341.7527,[0.5083334181043837],[0.25740740034315324],[1],[0],[0],[2.9476000000005342],0,59,59,100,1,./IMAGES_ONLINE_EXPERIMENT/FEMALE_CFD-WF-022-007-HC_ILL7_C5.png,./IMAGES_ONLINE_EXPERIMENT/FEMALE_CFD-WF-020-027-F_ILL7_C2.png,./IMAGES_ONLINE_EXPERIMENT/FEMALE_CFD-WF-033-031-A_ILL7_C1.png,./IMAGES_ONLINE_EXPERIMENT/FEMALE_CFD-WF-017-016-HC_ILL7_C4.png,./IMAGES_ONLINE_EXPERIMENT/FEMALE_CFD-WF-019-035-HO_ILL7_C6.png,./IMAGES_ONLINE_EXPERIMENT/FEMALE_CFD-WF-025-031-F_ILL7_C3.png,./IMAGES_ONLINE_EXPERIMENT/FEMALE_CFD-WF-019-024-F_ILL7.png,,
,,,,,21236,001,F,20,2026-03-23_12h22.25.920,RUN_BETA,2026.1.0,Win32,59.88023952,341.7534,342.2531,342.2542,348.1009,[0.4990741588451244],[-0.28148149560998986],[1],[0],[0],[5.847099999999614],0,60,60,28,1,./IMAGES_ONLINE_EXPERIMENT/FEMALE_CFD-WF-011-016-F_ILL7_C4.png,./IMAGES_ONLINE_EXPERIMENT/FEMALE_CFD-WF-022-017-N_ILL7_C2.png,./IMAGES_ONLINE_EXPERIMENT/FEMALE_CFD-WF-006-006-HO_ILL7_C6.png,./IMAGES_ONLINE_EXPERIMENT/FEMALE_CFD-WF-025-031-F_ILL7_C5.png,./IMAGES_ONLINE_EXPERIMENT/FEMALE_CFD-WF-020-023-HO_ILL7_C1.png,./IMAGES_ONLINE_EXPERIMENT/FEMALE_CFD-WF-035-030-HC_ILL7_C3.png,./IMAGES_ONLINE_EXPERIMENT/FEMALE_CFD-WF-006-002-N_ILL7.png,,
,,,,,21236,001,F,20,2026-03-23_12h22.25.920,RUN_BETA,2026.1.0,Win32,59.88023952,348.1022,348.6005,348.6021,352.2331,[-0.022222236350730614],[-0.2583333474618417],[1],[0],[0],[3.631400000000383],0,61,61,89,1,./IMAGES_ONLINE_EXPERIMENT/FEMALE_CFD-WF-007-003-HO_ILL9_C4.png,./IMAGES_ONLINE_EXPERIMENT/FEMALE_CFD-WF-023-020-HO_ILL9_C2.png,./IMAGES_ONLINE_EXPERIMENT/FEMALE_CFD-WF-029-018-F_ILL9_C5.png,./IMAGES_ONLINE_EXPERIMENT/FEMALE_CFD-WF-015-014-A_ILL9_C6.png,./IMAGES_ONLINE_EXPERIMENT/FEMALE_CFD-WF-011-006-HC_ILL9_C1.png,./IMAGES_ONLINE_EXPERIMENT/FEMALE_CFD-WF-001-009-HO_ILL9_C3.png,./IMAGES_ONLINE_EXPERIMENT/FEMALE_CFD-WF-015-022-HO_ILL9.png,,
,,,,,21236,001,F,20,2026-03-23_12h22.25.920,RUN_BETA,2026.1.0,Win32,59.88023952,352.2349,352.7326,352.7348,354.582,[-0.022222236350730614],[-0.2583333474618417],[1],[0],[0],[1.8479000000003225],0,62,62,44,1,./IMAGES_ONLINE_EXPERIMENT/MALES_CFD-WM-029-020-F_ILL10_C1.png,./IMAGES_ONLINE_EXPERIMENT/MALES_CFD-WM-033-006-HC_ILL10_C4.png,./IMAGES_ONLINE_EXPERIMENT/MALES_CFD-WM-039-018-N_ILL10_C3.png,./IMAGES_ONLINE_EXPERIMENT/MALES_CFD-WM-028-003-N_ILL10_C2.png,./IMAGES_ONLINE_EXPERIMENT/MALES_CFD-WM-040-025-HC_ILL10_C6.png,./IMAGES_ONLINE_EXPERIMENT/MALES_CFD-WM-026-004-HC_ILL10_C5.png,./IMAGES_ONLINE_EXPERIMENT/MALES_CFD-WM-040-023-HO_ILL10.png,,
,,,,,21236,001,F,20,2026-03-23_12h22.25.920,RUN_BETA,2026.1.0,Win32,59.88023952,354.5826,355.0818,355.0833,359.364,[0.47685185185185186],[0.24444444091231735],[1],[0],[0],[4.281300000000783],0,63,63,86,1,./IMAGES_ONLINE_EXPERIMENT/FEMALE_CFD-WF-039-005-HO_ILL10_C2.png,./IMAGES_ONLINE_EXPERIMENT/FEMALE_CFD-WF-038-023-HO_ILL10_C1.png,./IMAGES_ONLINE_EXPERIMENT/FEMALE_CFD-WF-039-032-A_ILL10_C4.png,./IMAGES_ONLINE_EXPERIMENT/FEMALE_CFD-WF-018-018-HO_ILL10_C3.png,./IMAGES_ONLINE_EXPERIMENT/FEMALE_CFD-WF-016-021-A_ILL10_C6.png,./IMAGES_ONLINE_EXPERIMENT/FEMALE_CFD-WF-015-022-HO_ILL10_C5.png,./IMAGES_ONLINE_EXPERIMENT/FEMALE_CFD-WF-016-024-F_ILL10.png,,
,,,,,21236,001,F,20,2026-03-23_12h22.25.920,RUN_BETA,2026.1.0,Win32,59.88023952,359.3647,359.8637,359.8651,365.1455,[-0.4666666454739041],[-0.25925925925925924],[1],[0],[0],[5.280900000000372],0,64,64,46,1,./IMAGES_ONLINE_EXPERIMENT/MALES_CFD-WM-038-018-F_ILL7_C2.png,./IMAGES_ONLINE_EXPERIMENT/MALES_CFD-WM-002-009-N_ILL7_C4.png,./IMAGES_ONLINE_EXPERIMENT/MALES_CFD-WM-013-006-HO_ILL7_C6.png,./IMAGES_ONLINE_EXPERIMENT/MALES_CFD-WM-025-018-HC_ILL7_C3.png,./IMAGES_ONLINE_EXPERIMENT/MALES_CFD-WM-040-022-N_ILL7_C5.png,./IMAGES_ONLINE_EXPERIMENT/MALES_CFD-WM-010-020-F_ILL7_C1.png,./IMAGES_ONLINE_EXPERIMENT/MALES_CFD-WM-013-015-A_ILL7.png,,
,,,,,21236,001,F,20,2026-03-23_12h22.25.920,RUN_BETA,2026.1.0,Win32,59.88023952,365.1466,365.6453,365.6473,368.2443,[-0.020370342113353587],[0.2611111005147298],[1],[0],[0],[2.5976000000005683],0,65,65,85,1,./IMAGES_ONLINE_EXPERIMENT/FEMALE_CFD-WF-007-001-N_ILL10_C2.png,./IMAGES_ONLINE_EXPERIMENT/FEMALE_CFD-WF-025-031-F_ILL10_C6.png,./IMAGES_ONLINE_EXPERIMENT/FEMALE_CFD-WF-014-004-HO_ILL10_C3.png,./IMAGES_ONLINE_EXPERIMENT/FEMALE_CFD-WF-019-032-HC_ILL10_C1.png,./IMAGES_ONLINE_EXPERIMENT/FEMALE_CFD-WF-013-015-A_ILL10_C5.png,./IMAGES_ONLINE_EXPERIMENT/FEMALE_CFD-WF-002-008-HC_ILL10_C4.png,./IMAGES_ONLINE_EXPERIMENT/FEMALE_CFD-WF-025-023-HC_ILL9.png,,
,,,,,21236,001,F,20,2026-03-23_12h22.25.920,RUN_BETA,2026.1.0,Win32,59.88023952,368.2452,368.7442,368.7456,371.6267,[-0.4833333403975875],[0.2222222222222222],[1],[0],[0],[2.881799999999828],0,66,66,96,1,./IMAGES_ONLINE_EXPERIMENT/FEMALE_CFD-WF-011-006-HC_ILL10_C6.png,./IMAGES_ONLINE_EXPERIMENT/FEMALE_CFD-WF-016-017-HC_ILL10_C5.png,./IMAGES_ONLINE_EXPERIMENT/FEMALE_CFD-WF-010-014-A_ILL10_C3.png,./IMAGES_ONLINE_EXPERIMENT/FEMALE_CFD-WF-033-005-HO_ILL10_C1.png,./IMAGES_ONLINE_EXPERIMENT/FEMALE_CFD-WF-030-026-F_ILL10_C4.png,./IMAGES_ONLINE_EXPERIMENT/FEMALE_CFD-WF-016-015-N_ILL10_C2.png,./IMAGES_ONLINE_EXPERIMENT/FEMALE_CFD-WF-011-016-F_ILL7.png,,
,,,,,21236,001,F,20,2026-03-23_12h22.25.920,RUN_BETA,2026.1.0,Win32,59.88023952,371.6275,372.127,372.129,379.3742,[0.4990741588451244],[0.2361111111111111],[1],[0],[0],[7.246100000000581],0,67,67,15,1,./IMAGES_ONLINE_EXPERIMENT/FEMALE_CFD-WF-017-015-HO_ILL10_C4.png,./IMAGES_ONLINE_EXPERIMENT/FEMALE_CFD-WF-018-013-F_ILL10_C2.png,./IMAGES_ONLINE_EXPERIMENT/FEMALE_CFD-WF-031-045-F_ILL10_C5.png,./IMAGES_ONLINE_EXPERIMENT/FEMALE_CFD-WF-036-030-HC_ILL10_C6.png,./IMAGES_ONLINE_EXPERIMENT/FEMALE_CFD-WF-015-022-HO_ILL10_C1.png,./IMAGES_ONLINE_EXPERIMENT/FEMALE_CFD-WF-005-022-A_ILL10_C3.png,./IMAGES_ONLINE_EXPERIMENT/FEMALE_CFD-WF-036-040-F_ILL10.png,,
,,,,,21236,001,F,20,2026-03-23_12h22.25.920,RUN_BETA,2026.1.0,Win32,59.88023952,379.3751,379.8747,379.8765,385.9389,[0.06851853264702691],[0.1888888676961263],[1],[0],[0],[6.062999999999988],0,68,68,69,1,./IMAGES_ONLINE_EXPERIMENT/MALES_CFD-WM-036-018-A_ILL10_C5.png,./IMAGES_ONLINE_EXPERIMENT/MALES_CFD-WM-032-001-N_ILL10_C6.png,./IMAGES_ONLINE_EXPERIMENT/MALES_CFD-WM-010-004-HO_ILL10_C2.png,./IMAGES_ONLINE_EXPERIMENT/MALES_CFD-WM-023-015-F_ILL10_C3.png,./IMAGES_ONLINE_EXPERIMENT/MALES_CFD-WM-034-030-N_ILL10_C1.png,./IMAGES_ONLINE_EXPERIMENT/MALES_CFD-WM-014-002-N_ILL10_C4.png,./IMAGES_ONLINE_EXPERIMENT/MALES_CFD-WM-032-021-F_ILL10.png,,
,,,,,21236,001,F,20,2026-03-23_12h22.25.920,RUN_BETA,2026.1.0,Win32,59.88023952,385.9398,386.4388,386.4404,395.4359,[0.04444447270146123],[0.19999998587149162],[1],[0],[0],[8.996000000000038],0,69,69,40,1,./IMAGES_ONLINE_EXPERIMENT/FEMALE_CFD-WF-026-002-N_ILL7_C3.png,./IMAGES_ONLINE_EXPERIMENT/FEMALE_CFD-WF-011-011-A_ILL7_C6.png,./IMAGES_ONLINE_EXPERIMENT/FEMALE_CFD-WF-021-016-HO_ILL7_C4.png,./IMAGES_ONLINE_EXPERIMENT/FEMALE_CFD-WF-013-015-A_ILL7_C2.png,./IMAGES_ONLINE_EXPERIMENT/FEMALE_CFD-WF-026-008-A_ILL7_C1.png,./IMAGES_ONLINE_EXPERIMENT/FEMALE_CFD-WF-009-006-HC_ILL7_C5.png,./IMAGES_ONLINE_EXPERIMENT/FEMALE_CFD-WF-011-016-F_ILL7.png,,
,,,,,21236,001,F,20,2026-03-23_12h22.25.920,RUN_BETA,2026.1.0,Win32,59.88023952,395.4371,395.9362,395.9379,406.7991,[-0.015740712483723957],[-0.28796294883445456],[1],[0],[0],[10.8622000000002],0,70,70,105,1,./IMAGES_ONLINE_EXPERIMENT/MALES_CFD-WM-031-004-HO_ILL10_C3.png,./IMAGES_ONLINE_EXPERIMENT/MALES_CFD-WM-015-005-HO_ILL10_C5.png,./IMAGES_ONLINE_EXPERIMENT/MALES_CFD-WM-035-033-HO_ILL10_C4.png,./IMAGES_ONLINE_EXPERIMENT/MALES_CFD-WM-001-014-N_ILL10_C1.png,./IMAGES_ONLINE_EXPERIMENT/MALES_CFD-WM-004-011-A_ILL10_C6.png,./IMAGES_ONLINE_EXPERIMENT/MALES_CFD-WM-037-025-N_ILL10_C2.png,./IMAGES_ONLINE_EXPERIMENT/MALES_CFD-WM-004-010-N_ILL10.png,,
,,,,,21236,001,F,20,2026-03-23_12h22.25.920,RUN_BETA,2026.1.0,Win32,59.88023952,406.7998,407.2994,407.301,409.598,[0.5712962680392795],[-0.3194444444444444],[1],[0],[0],[2.2977999999998246],0,71,71,114,1,./IMAGES_ONLINE_EXPERIMENT/MALES_CFD-WM-038-007-HC_ILL10_C3.png,./IMAGES_ONLINE_EXPERIMENT/MALES_CFD-WM-016-001-N_ILL10_C5.png,./IMAGES_ONLINE_EXPERIMENT/MALES_CFD-WM-011-002-N_ILL10_C2.png,./IMAGES_ONLINE_EXPERIMENT/MALES_CFD-WM-023-004-HO_ILL10_C1.png,./IMAGES_ONLINE_EXPERIMENT/MALES_CFD-WM-013-001-N_ILL10_C4.png,./IMAGES_ONLINE_EXPERIMENT/MALES_CFD-WM-015-005-HO_ILL10_C6.png,./IMAGES_ONLINE_EXPERIMENT/MALES_CFD-WM-015-002-N_ILL7.png,,
,,,,,21236,001,F,20,2026-03-23_12h22.25.920,RUN_BETA,2026.1.0,Win32,59.88023952,409.5995,410.0982,410.0993,414.4799,[-0.5046296296296297],[0.14444443031593604],[1],[0],[0],[4.380900000000395],0,72,72,20,1,./IMAGES_ONLINE_EXPERIMENT/MALES_CFD-WM-040-033-F_ILL10_C3.png,./IMAGES_ONLINE_EXPERIMENT/MALES_CFD-WM-041-021-N_ILL10_C4.png,./IMAGES_ONLINE_EXPERIMENT/MALES_CFD-WM-019-013-A_ILL10_C1.png,./IMAGES_ONLINE_EXPERIMENT/MALES_CFD-WM-014-002-N_ILL10_C6.png,./IMAGES_ONLINE_EXPERIMENT/MALES_CFD-WM-036-037-HC_ILL10_C2.png,./IMAGES_ONLINE_EXPERIMENT/MALES_CFD-WM-009-009-A_ILL10_C5.png,./IMAGES_ONLINE_EXPERIMENT/MALES_CFD-WM-014-013-A_ILL10.png,,
,,,,,21236,001,F,20,2026-03-23_12h22.25.920,RUN_BETA,2026.1.0,Win32,59.88023952,414.4807,414.9798,414.9824,419.5616,[0.5231481481481481],[-0.2574074356644242],[1],[0],[0],[4.580599999999663],0,73,73,64,1,./IMAGES_ONLINE_EXPERIMENT/FEMALE_CFD-WF-018-017-N_ILL7_C5.png,./IMAGES_ONLINE_EXPERIMENT/FEMALE_CFD-WF-030-031-HC_ILL7_C2.png,./IMAGES_ONLINE_EXPERIMENT/FEMALE_CFD-WF-038-027-HC_ILL7_C1.png,./IMAGES_ONLINE_EXPERIMENT/FEMALE_CFD-WF-023-003-N_ILL7_C3.png,./IMAGES_ONLINE_EXPERIMENT/FEMALE_CFD-WF-035-033-A_ILL7_C6.png,./IMAGES_ONLINE_EXPERIMENT/FEMALE_CFD-WF-008-003-HO_ILL7_C4.png,./IMAGES_ONLINE_EXPERIMENT/FEMALE_CFD-WF-035-030-HC_ILL7.png,,
,,,,,21236,001,F,20,2026-03-23_12h22.25.920,RUN_BETA,2026.1.0,Win32,59.88023952,419.5628,420.0613,420.0632,426.8591,[-0.007407365021882234],[-0.2574074356644242],[1],[0],[0],[6.796799999999848],0,74,74,115,1,./IMAGES_ONLINE_EXPERIMENT/MALES_CFD-WM-024-007-HC_ILL10_C4.png,./IMAGES_ONLINE_EXPERIMENT/MALES_CFD-WM-031-004-HO_ILL10_C1.png,./IMAGES_ONLINE_EXPERIMENT/MALES_CFD-WM-032-004-HO_ILL10_C2.png,./IMAGES_ONLINE_EXPERIMENT/MALES_CFD-WM-017-011-A_ILL10_C6.png,./IMAGES_ONLINE_EXPERIMENT/MALES_CFD-WM-021-006-HC_ILL10_C5.png,./IMAGES_ONLINE_EXPERIMENT/MALES_CFD-WM-009-014-F_ILL10_C3.png,./IMAGES_ONLINE_EXPERIMENT/MALES_CFD-WM-017-002-N_ILL9.png,,
,,,,,21236,001,F,20,2026-03-23_12h22.25.920,RUN_BETA,2026.1.0,Win32,59.88023952,426.8597,427.3593,427.3612,430.6246,[-0.007407365021882234],[-0.2574074356644242],[1],[0],[0],[3.2641999999992777],0,75,75,74,1,./IMAGES_ONLINE_EXPERIMENT/FEMALE_CFD-WF-020-002-N_ILL10_C4.png,./IMAGES_ONLINE_EXPERIMENT/FEMALE_CFD-WF-003-004-HO_ILL10_C6.png,./IMAGES_ONLINE_EXPERIMENT/FEMALE_CFD-WF-022-019-HO_ILL10_C2.png,./IMAGES_ONLINE_EXPERIMENT/FEMALE_CFD-WF-012-007-HO_ILL10_C3.png,./IMAGES_ONLINE_EXPERIMENT/FEMALE_CFD-WF-039-025-N_ILL10_C5.png,./IMAGES_ONLINE_EXPERIMENT/FEMALE_CFD-WF-038-021-N_ILL10_C1.png,./IMAGES_ONLINE_EXPERIMENT/FEMALE_CFD-WF-003-014-A_ILL10.png,,
,,,,,21236,001,F,20,2026-03-23_12h22.25.920,RUN_BETA,2026.1.0,Win32,59.88023952,430.6253,431.1251,431.1267,434.1068,[-0.519444430315936],[-0.3611111111111111],[1],[0],[0],[2.98059999999964],0,76,76,95,1,./IMAGES_ONLINE_EXPERIMENT/MALES_CFD-WM-031-003-N_ILL9_C1.png,./IMAGES_ONLINE_EXPERIMENT/MALES_CFD-WM-029-020-F_ILL9_C4.png,./IMAGES_ONLINE_EXPERIMENT/MALES_CFD-WM-025-019-HO_ILL9_C2.png,./IMAGES_ONLINE_EXPERIMENT/MALES_CFD-WM-038-018-F_ILL9_C6.png,./IMAGES_ONLINE_EXPERIMENT/MALES_CFD-WM-020-008-A_ILL9_C5.png,./IMAGES_ONLINE_EXPERIMENT/MALES_CFD-WM-010-016-A_ILL9_C3.png,./IMAGES_ONLINE_EXPERIMENT/MALES_CFD-WM-038-007-HC_ILL9.png,,
,,,,,21236,001,F,20,2026-03-23_12h22.25.920,RUN_BETA,2026.1.0,Win32,59.88023952,434.1076,434.6074,434.6088,437.7892,[-0.5120370299727829],[-0.30833336159035013],[1],[0],[0],[3.180900000000406],0,77,77,7,1,./IMAGES_ONLINE_EXPERIMENT/MALES_CFD-WM-041-023-HC_ILL10_C4.png,./IMAGES_ONLINE_EXPERIMENT/MALES_CFD-WM-014-008-HC_ILL10_C1.png,./IMAGES_ONLINE_EXPERIMENT/MALES_CFD-WM-037-034-HO_ILL10_C3.png,./IMAGES_ONLINE_EXPERIMENT/MALES_CFD-WM-041-021-N_ILL10_C5.png,./IMAGES_ONLINE_EXPERIMENT/MALES_CFD-WM-016-001-N_ILL10_C6.png,./IMAGES_ONLINE_EXPERIMENT/MALES_CFD-WM-015-005-HO_ILL10_C2.png,./IMAGES_ONLINE_EXPERIMENT/MALES_CFD-WM-016-008-A_ILL9.png,,
,,,,,21236,001,F,20,2026-03-23_12h22.25.920,RUN_BETA,2026.1.0,Win32,59.88023952,437.7901,438.2895,438.2911,444.937,[0.47777783429181137],[0.24444444091231735],[1],[0],[0],[6.646400000000369],0,78,78,3,1,./IMAGES_ONLINE_EXPERIMENT/FEMALE_CFD-WF-039-044-F_ILL10_C3.png,./IMAGES_ONLINE_EXPERIMENT/FEMALE_CFD-WF-020-002-N_ILL10_C1.png,./IMAGES_ONLINE_EXPERIMENT/FEMALE_CFD-WF-002-033-A_ILL10_C2.png,./IMAGES_ONLINE_EXPERIMENT/FEMALE_CFD-WF-034-006-N_ILL10_C6.png,./IMAGES_ONLINE_EXPERIMENT/FEMALE_CFD-WF-039-032-A_ILL10_C5.png,./IMAGES_ONLINE_EXPERIMENT/FEMALE_CFD-WF-007-029-A_ILL10_C4.png,./IMAGES_ONLINE_EXPERIMENT/FEMALE_CFD-WF-034-033-HO_ILL10.png,,
,,,,,21236,001,F,20,2026-03-23_12h22.25.920,RUN_BETA,2026.1.0,Win32,59.88023952,444.9379,445.4375,445.439,448.9357,[-0.4740740811383283],[0.2527777707135236],[1],[0],[0],[3.4969000000003803],0,79,79,6,1,./IMAGES_ONLINE_EXPERIMENT/MALES_CFD-WM-041-023-HC_ILL10_C6.png,./IMAGES_ONLINE_EXPERIMENT/MALES_CFD-WM-029-020-F_ILL10_C4.png,./IMAGES_ONLINE_EXPERIMENT/MALES_CFD-WM-037-025-N_ILL10_C2.png,./IMAGES_ONLINE_EXPERIMENT/MALES_CFD-WM-009-002-N_ILL10_C1.png,./IMAGES_ONLINE_EXPERIMENT/MALES_CFD-WM-016-008-A_ILL10_C3.png,./IMAGES_ONLINE_EXPERIMENT/MALES_CFD-WM-032-001-N_ILL10_C5.png,./IMAGES_ONLINE_EXPERIMENT/MALES_CFD-WM-041-009-A_ILL7.png,,
,,,,,21236,001,F,20,2026-03-23_12h22.25.920,RUN_BETA,2026.1.0,Win32,59.88023952,448.9376,449.4353,449.4372,451.718,[0.036111125239619506],[-0.2462962821677879],[1],[0],[0],[2.2816999999992618],0,80,80,116,1,./IMAGES_ONLINE_EXPERIMENT/MALES_CFD-WM-013-001-N_ILL10_C2.png,./IMAGES_ONLINE_EXPERIMENT/MALES_CFD-WM-038-011-A_ILL10_C6.png,./IMAGES_ONLINE_EXPERIMENT/MALES_CFD-WM-003-006-HC_ILL10_C5.png,./IMAGES_ONLINE_EXPERIMENT/MALES_CFD-WM-036-031-N_ILL10_C4.png,./IMAGES_ONLINE_EXPERIMENT/MALES_CFD-WM-006-010-HO_ILL10_C1.png,./IMAGES_ONLINE_EXPERIMENT/MALES_CFD-WM-022-012-F_ILL10_C3.png,./IMAGES_ONLINE_EXPERIMENT/MALES_CFD-WM-038-007-HC_ILL10.png,,
,,,,,21236,001,F,20,2026-03-23_12h22.25.920,RUN_BETA,2026.1.0,Win32,59.88023952,451.7191,452.2187,452.2202,454.2342,[0.48425928751627606],[-0.2212963104248047],[1],[0],[0],[2.014700000000232],0,81,81,30,1,./IMAGES_ONLINE_EXPERIMENT/MALES_CFD-WM-034-032-HC_ILL10_C1.png,./IMAGES_ONLINE_EXPERIMENT/MALES_CFD-WM-002-009-N_ILL10_C2.png,./IMAGES_ONLINE_EXPERIMENT/MALES_CFD-WM-025-022-F_ILL10_C4.png,./IMAGES_ONLINE_EXPERIMENT/MALES_CFD-WM-035-032-N_ILL10_C6.png,./IMAGES_ONLINE_EXPERIMENT/MALES_CFD-WM-014-008-HC_ILL10_C3.png,./IMAGES_ONLINE_EXPERIMENT/MALES_CFD-WM-014-002-N_ILL10_C5.png,./IMAGES_ONLINE_EXPERIMENT/MALES_CFD-WM-035-033-HO_ILL7.png,,
,,,,,21236,001,F,20,2026-03-23_12h22.25.920,RUN_BETA,2026.1.0,Win32,59.88023952,454.2352,454.7346,454.7359,458.9325,[0.0398148430718316],[-0.2787036895751953],[1],[0],[0],[4.19720000000018],0,82,82,91,1,./IMAGES_ONLINE_EXPERIMENT/MALES_CFD-WM-013-008-HC_ILL10_C4.png,./IMAGES_ONLINE_EXPERIMENT/MALES_CFD-WM-033-007-HO_ILL10_C2.png,./IMAGES_ONLINE_EXPERIMENT/MALES_CFD-WM-031-032-F_ILL10_C3.png,./IMAGES_ONLINE_EXPERIMENT/MALES_CFD-WM-026-013-F_ILL10_C6.png,./IMAGES_ONLINE_EXPERIMENT/MALES_CFD-WM-032-008-HC_ILL10_C5.png,./IMAGES_ONLINE_EXPERIMENT/MALES_CFD-WM-028-019-F_ILL10_C1.png,./IMAGES_ONLINE_EXPERIMENT/MALES_CFD-WM-026-004-HC_ILL9.png,,
,,,,,21236,001,F,20,2026-03-23_12h22.25.920,RUN_BETA,2026.1.0,Win32,59.88023952,458.9333,459.4327,459.4338,462.6815,[-0.012962977091471354],[0.19444444444444445],[1],[0],[0],[3.247899999999447],0,83,83,37,1,./IMAGES_ONLINE_EXPERIMENT/FEMALE_CFD-WF-016-024-F_ILL10_C3.png,./IMAGES_ONLINE_EXPERIMENT/FEMALE_CFD-WF-037-016-A_ILL10_C1.png,./IMAGES_ONLINE_EXPERIMENT/FEMALE_CFD-WF-034-061-HC_ILL10_C4.png,./IMAGES_ONLINE_EXPERIMENT/FEMALE_CFD-WF-017-016-HC_ILL10_C5.png,./IMAGES_ONLINE_EXPERIMENT/FEMALE_CFD-WF-029-018-F_ILL10_C2.png,./IMAGES_ONLINE_EXPERIMENT/FEMALE_CFD-WF-026-008-A_ILL10_C6.png,./IMAGES_ONLINE_EXPERIMENT/FEMALE_CFD-WF-026-018-HC_ILL9.png,,
,,,,,21236,001,F,20,2026-03-23_12h22.25.920,RUN_BETA,2026.1.0,Win32,59.88023952,462.6829,463.1811,463.1823,465.9302,[-0.012962977091471354],[0.19444444444444445],[1],[0],[0],[2.7482999999998015],0,84,84,45,1,./IMAGES_ONLINE_EXPERIMENT/MALES_CFD-WM-013-001-N_ILL10_C5.png,./IMAGES_ONLINE_EXPERIMENT/MALES_CFD-WM-006-010-HO_ILL10_C1.png,./IMAGES_ONLINE_EXPERIMENT/MALES_CFD-WM-034-035-HO_ILL10_C4.png,./IMAGES_ONLINE_EXPERIMENT/MALES_CFD-WM-020-012-F_ILL10_C6.png,./IMAGES_ONLINE_EXPERIMENT/MALES_CFD-WM-036-018-A_ILL10_C2.png,./IMAGES_ONLINE_EXPERIMENT/MALES_CFD-WM-034-027-F_ILL10_C3.png,./IMAGES_ONLINE_EXPERIMENT/MALES_CFD-WM-020-001-N_ILL10.png,,
,,,,,21236,001,F,20,2026-03-23_12h22.25.920,RUN_BETA,2026.1.0,Win32,59.88023952,465.9316,466.4308,466.4326,472.3615,[0.5092592592592593],[-0.19259262084960938],[1],[0],[0],[5.929500000000019],0,85,85,29,1,./IMAGES_ONLINE_EXPERIMENT/FEMALE_CFD-WF-010-006-HO_ILL9_C1.png,./IMAGES_ONLINE_EXPERIMENT/FEMALE_CFD-WF-012-012-A_ILL9_C4.png,./IMAGES_ONLINE_EXPERIMENT/FEMALE_CFD-WF-036-023-N_ILL9_C2.png,./IMAGES_ONLINE_EXPERIMENT/FEMALE_CFD-WF-005-010-N_ILL9_C6.png,./IMAGES_ONLINE_EXPERIMENT/FEMALE_CFD-WF-026-017-HO_ILL9_C3.png,./IMAGES_ONLINE_EXPERIMENT/FEMALE_CFD-WF-028-023-N_ILL9_C5.png,./IMAGES_ONLINE_EXPERIMENT/FEMALE_CFD-WF-005-013-HO_ILL9.png,,
,,,,,21236,001,F,20,2026-03-23_12h22.25.920,RUN_BETA,2026.1.0,Win32,59.88023952,472.3623,472.8622,472.8637,474.9107,[0.12592591179741752],[-0.26666669492368344],[1],[0],[0],[2.0475000000000136],0,86,86,9,1,./IMAGES_ONLINE_EXPERIMENT/MALES_CFD-WM-038-003-N_ILL10_C2.png,./IMAGES_ONLINE_EXPERIMENT/MALES_CFD-WM-034-032-HC_ILL10_C3.png,./IMAGES_ONLINE_EXPERIMENT/MALES_CFD-WM-041-021-N_ILL10_C5.png,./IMAGES_ONLINE_EXPERIMENT/MALES_CFD-WM-041-009-A_ILL10_C4.png,./IMAGES_ONLINE_EXPERIMENT/MALES_CFD-WM-029-023-N_ILL10_C6.png,./IMAGES_ONLINE_EXPERIMENT/MALES_CFD-WM-003-003-HO_ILL10_C1.png,./IMAGES_ONLINE_EXPERIMENT/MALES_CFD-WM-029-029-HO_ILL10.png,,
,,,,,21236,001,F,20,2026-03-23_12h22.25.920,RUN_BETA,2026.1.0,Win32,59.88023952,474.912,475.4104,475.4126,477.5267,[0.046296296296296294],[-0.24166665253815828],[1],[0],[0],[2.1151000000005524],0,87,87,119,1,./IMAGES_ONLINE_EXPERIMENT/MALES_CFD-WM-006-002-N_ILL9_C1.png,./IMAGES_ONLINE_EXPERIMENT/MALES_CFD-WM-033-025-N_ILL9_C5.png,./IMAGES_ONLINE_EXPERIMENT/MALES_CFD-WM-024-015-N_ILL9_C4.png,./IMAGES_ONLINE_EXPERIMENT/MALES_CFD-WM-010-016-A_ILL9_C3.png,./IMAGES_ONLINE_EXPERIMENT/MALES_CFD-WM-002-007-HO_ILL9_C6.png,./IMAGES_ONLINE_EXPERIMENT/MALES_CFD-WM-034-032-HC_ILL9_C2.png,./IMAGES_ONLINE_EXPERIMENT/MALES_CFD-WM-002-008-HC_ILL9.png,,
,,,,,21236,001,F,20,2026-03-23_12h22.25.920,RUN_BETA,2026.1.0,Win32,59.88023952,477.5279,478.0269,478.028,481.3753,[0.028703689575195312],[0.2583333298012062],[1],[0],[0],[3.347700000000259],0,88,88,10,1,./IMAGES_ONLINE_EXPERIMENT/MALES_CFD-WM-026-001-N_ILL7_C3.png,./IMAGES_ONLINE_EXPERIMENT/MALES_CFD-WM-018-005-HC_ILL7_C5.png,./IMAGES_ONLINE_EXPERIMENT/MALES_CFD-WM-039-004-HC_ILL7_C1.png,./IMAGES_ONLINE_EXPERIMENT/MALES_CFD-WM-032-004-HO_ILL7_C2.png,./IMAGES_ONLINE_EXPERIMENT/MALES_CFD-WM-013-008-HC_ILL7_C4.png,./IMAGES_ONLINE_EXPERIMENT/MALES_CFD-WM-009-014-F_ILL7_C6.png,./IMAGES_ONLINE_EXPERIMENT/MALES_CFD-WM-009-002-N_ILL7.png,,
,,,,,21236,001,F,20,2026-03-23_12h22.25.920,RUN_BETA,2026.1.0,Win32,59.88023952,481.3764,481.8756,481.8775,486.1073,[-0.015740712483723957],[-0.19629633868182148],[1],[0],[0],[4.230299999999829],0,89,89,51,1,./IMAGES_ONLINE_EXPERIMENT/FEMALE_CFD-WF-022-007-HC_ILL10_C2.png,./IMAGES_ONLINE_EXPERIMENT/FEMALE_CFD-WF-030-003-HO_ILL10_C6.png,./IMAGES_ONLINE_EXPERIMENT/FEMALE_CFD-WF-024-003-N_ILL10_C1.png,./IMAGES_ONLINE_EXPERIMENT/FEMALE_CFD-WF-011-011-A_ILL10_C5.png,./IMAGES_ONLINE_EXPERIMENT/FEMALE_CFD-WF-039-008-HC_ILL10_C4.png,./IMAGES_ONLINE_EXPERIMENT/FEMALE_CFD-WF-031-005-HO_ILL10_C3.png,./IMAGES_ONLINE_EXPERIMENT/FEMALE_CFD-WF-030-002-N_ILL10.png,,
,,,,,21236,001,F,20,2026-03-23_12h22.25.920,RUN_BETA,2026.1.0,Win32,59.88023952,486.1083,486.6077,486.6092,493.2217,[-0.3888888888888889],[0.23425925219500507],[1],[0],[0],[6.612899999999513],0,90,90,112,1,./IMAGES_ONLINE_EXPERIMENT/FEMALE_CFD-WF-017-012-F_ILL7_C6.png,./IMAGES_ONLINE_EXPERIMENT/FEMALE_CFD-WF-029-023-HC_ILL7_C1.png,./IMAGES_ONLINE_EXPERIMENT/FEMALE_CFD-WF-018-017-N_ILL7_C5.png,./IMAGES_ONLINE_EXPERIMENT/FEMALE_CFD-WF-035-024-N_ILL7_C2.png,./IMAGES_ONLINE_EXPERIMENT/FEMALE_CFD-WF-005-010-N_ILL7_C4.png,./IMAGES_ONLINE_EXPERIMENT/FEMALE_CFD-WF-034-033-HO_ILL7_C3.png,./IMAGES_ONLINE_EXPERIMENT/FEMALE_CFD-WF-017-023-A_ILL7.png,,
,,,,,21236,001,F,20,2026-03-23_12h22.25.920,RUN_BETA,2026.1.0,Win32,59.88023952,493.2224,493.7216,493.7234,497.8868,[0.5759258976689091],[-0.24074074074074073],[1],[0],[0],[4.164099999999621],0,91,91,80,1,./IMAGES_ONLINE_EXPERIMENT/MALES_CFD-WM-003-002-N_ILL10_C1.png,./IMAGES_ONLINE_EXPERIMENT/MALES_CFD-WM-012-001-N_ILL10_C2.png,./IMAGES_ONLINE_EXPERIMENT/MALES_CFD-WM-036-034-HO_ILL10_C5.png,./IMAGES_ONLINE_EXPERIMENT/MALES_CFD-WM-032-001-N_ILL10_C6.png,./IMAGES_ONLINE_EXPERIMENT/MALES_CFD-WM-009-006-HC_ILL10_C3.png,./IMAGES_ONLINE_EXPERIMENT/MALES_CFD-WM-031-038-HC_ILL10_C4.png,./IMAGES_ONLINE_EXPERIMENT/MALES_CFD-WM-032-008-HC_ILL10.png,,
,,,,,21236,001,F,20,2026-03-23_12h22.25.920,RUN_BETA,2026.1.0,Win32,59.88023952,497.8878,498.3869,498.3881,503.7681,[0.036111125239619506],[0.21481480421843352],[1],[0],[0],[5.380499999999984],0,92,92,56,1,./IMAGES_ONLINE_EXPERIMENT/MALES_CFD-WM-031-003-N_ILL10_C6.png,./IMAGES_ONLINE_EXPERIMENT/MALES_CFD-WM-024-015-N_ILL10_C2.png,./IMAGES_ONLINE_EXPERIMENT/MALES_CFD-WM-025-019-HO_ILL10_C4.png,./IMAGES_ONLINE_EXPERIMENT/MALES_CFD-WM-024-019-F_ILL10_C1.png,./IMAGES_ONLINE_EXPERIMENT/MALES_CFD-WM-028-005-HC_ILL10_C5.png,./IMAGES_ONLINE_EXPERIMENT/MALES_CFD-WM-009-014-F_ILL10_C3.png,./IMAGES_ONLINE_EXPERIMENT/MALES_CFD-WM-031-032-F_ILL10.png,,
,,,,,21236,001,F,20,2026-03-23_12h22.25.920,RUN_BETA,2026.1.0,Win32,59.88023952,503.7689,504.2683,504.2698,508.5835,[-0.4620370158442744],[0.20555554495917427],[1],[0],[0],[4.3142999999997755],0,93,93,11,1,./IMAGES_ONLINE_EXPERIMENT/MALES_CFD-WM-031-045-A_ILL9_C4.png,./IMAGES_ONLINE_EXPERIMENT/MALES_CFD-WM-016-005-HC_ILL9_C3.png,./IMAGES_ONLINE_EXPERIMENT/MALES_CFD-WM-026-006-HO_ILL9_C6.png,./IMAGES_ONLINE_EXPERIMENT/MALES_CFD-WM-040-022-N_ILL9_C5.png,./IMAGES_ONLINE_EXPERIMENT/MALES_CFD-WM-041-009-A_ILL9_C1.png,./IMAGES_ONLINE_EXPERIMENT/MALES_CFD-WM-031-038-HC_ILL9_C2.png,./IMAGES_ONLINE_EXPERIMENT/MALES_CFD-WM-026-019-A_ILL9.png,,
,,,,,21236,001,F,20,2026-03-23_12h22.25.920,RUN_BETA,2026.1.0,Win32,59.88023952,508.5843,509.0835,509.085,512.0156,[0.008333347461841724],[-0.2462962821677879],[1],[0],[0],[2.93100000000004],0,94,94,33,1,./IMAGES_ONLINE_EXPERIMENT/MALES_CFD-WM-002-007-HO_ILL10_C6.png,./IMAGES_ONLINE_EXPERIMENT/MALES_CFD-WM-026-019-A_ILL10_C4.png,./IMAGES_ONLINE_EXPERIMENT/MALES_CFD-WM-020-005-HC_ILL10_C1.png,./IMAGES_ONLINE_EXPERIMENT/MALES_CFD-WM-039-018-N_ILL10_C2.png,./IMAGES_ONLINE_EXPERIMENT/MALES_CFD-WM-009-014-F_ILL10_C5.png,./IMAGES_ONLINE_EXPERIMENT/MALES_CFD-WM-019-013-A_ILL10_C3.png,./IMAGES_ONLINE_EXPERIMENT/MALES_CFD-WM-002-009-N_ILL10.png,,
,,,,,21236,001,F,20,2026-03-23_12h22.25.920,RUN_BETA,2026.1.0,Win32,59.88023952,512.0162,512.5161,512.5175,515.4977,[-0.5268518306590892],[-0.27314814814814814],[1],[0],[0],[2.9807999999998174],0,95,95,108,1,./IMAGES_ONLINE_EXPERIMENT/FEMALE_CFD-WF-010-008-HC_ILL10_C5.png,./IMAGES_ONLINE_EXPERIMENT/FEMALE_CFD-WF-019-015-A_ILL10_C2.png,./IMAGES_ONLINE_EXPERIMENT/FEMALE_CFD-WF-008-016-F_ILL10_C1.png,./IMAGES_ONLINE_EXPERIMENT/FEMALE_CFD-WF-034-016-A_ILL10_C4.png,./IMAGES_ONLINE_EXPERIMENT/FEMALE_CFD-WF-001-027-F_ILL10_C3.png,./IMAGES_ONLINE_EXPERIMENT/FEMALE_CFD-WF-025-019-N_ILL10_C6.png,./IMAGES_ONLINE_EXPERIMENT/FEMALE_CFD-WF-025-015-A_ILL7.png,,
,,,,,21236,001,F,20,2026-03-23_12h22.25.920,RUN_BETA,2026.1.0,Win32,59.88023952,515.4984,515.9984,516.0001,521.1795,[-0.041666666666666664],[0.25],[1],[0],[0],[5.17990000000043],0,96,96,53,1,./IMAGES_ONLINE_EXPERIMENT/FEMALE_CFD-WF-030-003-HO_ILL9_C5.png,./IMAGES_ONLINE_EXPERIMENT/FEMALE_CFD-WF-039-005-HO_ILL9_C3.png,./IMAGES_ONLINE_EXPERIMENT/FEMALE_CFD-WF-027-007-HC_ILL9_C2.png,./IMAGES_ONLINE_EXPERIMENT/FEMALE_CFD-WF-001-027-F_ILL9_C4.png,./IMAGES_ONLINE_EXPERIMENT/FEMALE_CFD-WF-029-023-HC_ILL9_C6.png,./IMAGES_ONLINE_EXPERIMENT/FEMALE_CFD-WF-002-033-A_ILL9_C1.png,./IMAGES_ONLINE_EXPERIMENT/FEMALE_CFD-WF-029-002-N_ILL9.png,,
,,,,,21236,001,F,20,2026-03-23_12h22.25.920,RUN_BETA,2026.1.0,Win32,59.88023952,521.1804,521.6795,521.6808,526.1444,[0.4527778625488281],[-0.2861111252396195],[1],[0],[0],[4.464200000000233],0,97,97,49,1,./IMAGES_ONLINE_EXPERIMENT/FEMALE_CFD-WF-037-029-N_ILL10_C3.png,./IMAGES_ONLINE_EXPERIMENT/FEMALE_CFD-WF-039-005-HO_ILL10_C5.png,./IMAGES_ONLINE_EXPERIMENT/FEMALE_CFD-WF-018-019-HC_ILL10_C2.png,./IMAGES_ONLINE_EXPERIMENT/FEMALE_CFD-WF-034-016-A_ILL10_C6.png,./IMAGES_ONLINE_EXPERIMENT/FEMALE_CFD-WF-006-006-HO_ILL10_C1.png,./IMAGES_ONLINE_EXPERIMENT/FEMALE_CFD-WF-007-029-A_ILL10_C4.png,./IMAGES_ONLINE_EXPERIMENT/FEMALE_CFD-WF-034-033-HO_ILL9.png,,
,,,,,21236,001,F,20,2026-03-23_12h22.25.920,RUN_BETA,2026.1.0,Win32,59.88023952,526.1451,526.6448,526.6464,529.6269,[0.4527778625488281],[-0.2861111252396195],[1],[0],[0],[2.981100000000538],0,98,98,39,1,./IMAGES_ONLINE_EXPERIMENT/FEMALE_CFD-WF-021-006-HC_ILL10_C3.png,./IMAGES_ONLINE_EXPERIMENT/FEMALE_CFD-WF-016-003-HO_ILL10_C2.png,./IMAGES_ONLINE_EXPERIMENT/FEMALE_CFD-WF-010-008-HC_ILL10_C1.png,./IMAGES_ONLINE_EXPERIMENT/FEMALE_CFD-WF-022-023-A_ILL10_C5.png,./IMAGES_ONLINE_EXPERIMENT/FEMALE_CFD-WF-015-027-F_ILL10_C6.png,./IMAGES_ONLINE_EXPERIMENT/FEMALE_CFD-WF-033-031-A_ILL10_C4.png,./IMAGES_ONLINE_EXPERIMENT/FEMALE_CFD-WF-015-014-A_ILL10.png,,
,,,,,21236,001,F,20,2026-03-23_12h22.25.920,RUN_BETA,2026.1.0,Win32,59.88023952,529.6277,530.1268,530.1283,532.3926,[0.4527778625488281],[-0.2861111252396195],[1],[0],[0],[2.264699999999266],0,99,99,72,1,./IMAGES_ONLINE_EXPERIMENT/FEMALE_CFD-WF-015-006-N_ILL10_C5.png,./IMAGES_ONLINE_EXPERIMENT/FEMALE_CFD-WF-001-009-HO_ILL10_C4.png,./IMAGES_ONLINE_EXPERIMENT/FEMALE_CFD-WF-024-031-F_ILL10_C6.png,./IMAGES_ONLINE_EXPERIMENT/FEMALE_CFD-WF-007-026-F_ILL10_C3.png,./IMAGES_ONLINE_EXPERIMENT/FEMALE_CFD-WF-037-029-N_ILL10_C2.png,./IMAGES_ONLINE_EXPERIMENT/FEMALE_CFD-WF-023-013-A_ILL10_C1.png,./IMAGES_ONLINE_EXPERIMENT/FEMALE_CFD-WF-024-010-HC_ILL7.png,,
,,,,,21236,001,F,20,2026-03-23_12h22.25.920,RUN_BETA,2026.1.0,Win32,59.88023952,532.3934,532.8923,532.8937,536.6746,[0.03518521344220197],[-0.3472222222222222],[1],[0],[0],[3.7812999999998738],0,100,100,76,1,./IMAGES_ONLINE_EXPERIMENT/FEMALE_CFD-WF-030-003-HO_ILL7_C1.png,./IMAGES_ONLINE_EXPERIMENT/FEMALE_CFD-WF-038-027-HC_ILL7_C2.png,./IMAGES_ONLINE_EXPERIMENT/FEMALE_CFD-WF-023-020-HO_ILL7_C4.png,./IMAGES_ONLINE_EXPERIMENT/FEMALE_CFD-WF-001-003-N_ILL7_C5.png,./IMAGES_ONLINE_EXPERIMENT/FEMALE_CFD-WF-021-002-N_ILL7_C6.png,./IMAGES_ONLINE_EXPERIMENT/FEMALE_CFD-WF-003-004-HO_ILL7_C3.png,./IMAGES_ONLINE_EXPERIMENT/FEMALE_CFD-WF-021-018-A_ILL7.png,,
,,,,,21236,001,F,20,2026-03-23_12h22.25.920,RUN_BETA,2026.1.0,Win32,59.88023952,536.6756,537.1747,537.1763,540.64,[0.5379630194769965],[0.2222222222222222],[1],[0],[0],[3.464100000000599],0,101,101,21,1,./IMAGES_ONLINE_EXPERIMENT/MALES_CFD-WM-033-006-HC_ILL10_C3.png,./IMAGES_ONLINE_EXPERIMENT/MALES_CFD-WM-022-008-A_ILL10_C2.png,./IMAGES_ONLINE_EXPERIMENT/MALES_CFD-WM-002-009-N_ILL10_C6.png,./IMAGES_ONLINE_EXPERIMENT/MALES_CFD-WM-022-005-HO_ILL10_C5.png,./IMAGES_ONLINE_EXPERIMENT/MALES_CFD-WM-012-005-HO_ILL10_C4.png,./IMAGES_ONLINE_EXPERIMENT/MALES_CFD-WM-023-012-A_ILL10_C1.png,./IMAGES_ONLINE_EXPERIMENT/MALES_CFD-WM-002-007-HO_ILL10.png,,
,,,,,21236,001,F,20,2026-03-23_12h22.25.920,RUN_BETA,2026.1.0,Win32,59.88023952,540.6409,541.1402,541.1424,543.6055,[0.5212963245533131],[0.22962962256537545],[1],[0],[0],[2.46449999999993],0,102,102,98,1,./IMAGES_ONLINE_EXPERIMENT/FEMALE_CFD-WF-013-006-HO_ILL10_C3.png,./IMAGES_ONLINE_EXPERIMENT/FEMALE_CFD-WF-018-017-N_ILL10_C1.png,./IMAGES_ONLINE_EXPERIMENT/FEMALE_CFD-WF-001-009-HO_ILL10_C6.png,./IMAGES_ONLINE_EXPERIMENT/FEMALE_CFD-WF-019-005-N_ILL10_C4.png,./IMAGES_ONLINE_EXPERIMENT/FEMALE_CFD-WF-033-002-N_ILL10_C2.png,./IMAGES_ONLINE_EXPERIMENT/FEMALE_CFD-WF-039-008-HC_ILL10_C5.png,./IMAGES_ONLINE_EXPERIMENT/FEMALE_CFD-WF-001-027-F_ILL10.png,,
,,,,,21236,001,F,20,2026-03-23_12h22.25.920,RUN_BETA,2026.1.0,Win32,59.88023952,543.6062,544.1062,544.1079,548.7041,[-0.03333331920482494],[0.18333332626907914],[1],[0],[0],[4.596799999999803],0,103,103,73,1,./IMAGES_ONLINE_EXPERIMENT/FEMALE_CFD-WF-038-027-HC_ILL10_C6.png,./IMAGES_ONLINE_EXPERIMENT/FEMALE_CFD-WF-011-016-F_ILL10_C5.png,./IMAGES_ONLINE_EXPERIMENT/FEMALE_CFD-WF-027-021-HO_ILL10_C3.png,./IMAGES_ONLINE_EXPERIMENT/FEMALE_CFD-WF-019-032-HC_ILL10_C1.png,./IMAGES_ONLINE_EXPERIMENT/FEMALE_CFD-WF-011-002-N_ILL10_C4.png,./IMAGES_ONLINE_EXPERIMENT/FEMALE_CFD-WF-035-033-A_ILL10_C2.png,./IMAGES_ONLINE_EXPERIMENT/FEMALE_CFD-WF-038-030-A_ILL9.png,,
,,,,,21236,001,F,20,2026-03-23_12h22.25.920,RUN_BETA,2026.1.0,Win32,59.88023952,548.7055,549.2044,549.2062,552.2194,[-0.4675925925925926],[-0.2212963104248047],[1],[0],[0],[3.01400000000001],0,104,104,17,1,./IMAGES_ONLINE_EXPERIMENT/FEMALE_CFD-WF-016-017-HC_ILL9_C5.png,./IMAGES_ONLINE_EXPERIMENT/FEMALE_CFD-WF-019-032-HC_ILL9_C6.png,./IMAGES_ONLINE_EXPERIMENT/FEMALE_CFD-WF-021-002-N_ILL9_C2.png,./IMAGES_ONLINE_EXPERIMENT/FEMALE_CFD-WF-036-023-N_ILL9_C4.png,./IMAGES_ONLINE_EXPERIMENT/FEMALE_CFD-WF-039-044-F_ILL9_C1.png,./IMAGES_ONLINE_EXPERIMENT/FEMALE_CFD-WF-018-017-N_ILL9_C3.png,./IMAGES_ONLINE_EXPERIMENT/FEMALE_CFD-WF-019-024-F_ILL9.png,,
,,,,,21236,001,F,20,2026-03-23_12h22.25.920,RUN_BETA,2026.1.0,Win32,59.88023952,552.2201,552.7193,552.7207,556.635,[-0.5518518377233435],[0.22314815168027524],[1],[0],[0],[3.9146000000006325],0,105,105,111,1,./IMAGES_ONLINE_EXPERIMENT/FEMALE_CFD-WF-029-018-F_ILL10_C6.png,./IMAGES_ONLINE_EXPERIMENT/FEMALE_CFD-WF-031-027-N_ILL10_C5.png,./IMAGES_ONLINE_EXPERIMENT/FEMALE_CFD-WF-039-044-F_ILL10_C2.png,./IMAGES_ONLINE_EXPERIMENT/FEMALE_CFD-WF-025-031-F_ILL10_C3.png,./IMAGES_ONLINE_EXPERIMENT/FEMALE_CFD-WF-007-029-A_ILL10_C4.png,./IMAGES_ONLINE_EXPERIMENT/FEMALE_CFD-WF-020-023-HO_ILL10_C1.png,./IMAGES_ONLINE_EXPERIMENT/FEMALE_CFD-WF-029-026-A_ILL10.png,,
,,,,,21236,001,F,20,2026-03-23_12h22.25.920,RUN_BETA,2026.1.0,Win32,59.88023952,556.6363,557.135,557.1368,559.8174,[-0.4916666525381583],[-0.3000000141285084],[1],[0],[0],[2.680799999999863],0,106,106,61,1,./IMAGES_ONLINE_EXPERIMENT/FEMALE_CFD-WF-008-003-HO_ILL10_C2.png,./IMAGES_ONLINE_EXPERIMENT/FEMALE_CFD-WF-035-019-F_ILL10_C1.png,./IMAGES_ONLINE_EXPERIMENT/FEMALE_CFD-WF-009-015-F_ILL10_C3.png,./IMAGES_ONLINE_EXPERIMENT/FEMALE_CFD-WF-029-026-A_ILL10_C4.png,./IMAGES_ONLINE_EXPERIMENT/FEMALE_CFD-WF-033-005-HO_ILL10_C6.png,./IMAGES_ONLINE_EXPERIMENT/FEMALE_CFD-WF-016-015-N_ILL10_C5.png,./IMAGES_ONLINE_EXPERIMENT/FEMALE_CFD-WF-033-002-N_ILL9.png,,
,,,,,21236,001,F,20,2026-03-23_12h22.25.920,RUN_BETA,2026.1.0,Win32,59.88023952,559.8192,560.3177,560.3189,564.4489,[0.009259259259259259],[0.24537037037037038],[1],[0],[0],[4.13040000000035],0,107,107,84,1,./IMAGES_ONLINE_EXPERIMENT/FEMALE_CFD-WF-023-026-F_ILL10_C6.png,./IMAGES_ONLINE_EXPERIMENT/FEMALE_CFD-WF-011-016-F_ILL10_C1.png,./IMAGES_ONLINE_EXPERIMENT/FEMALE_CFD-WF-017-015-HO_ILL10_C4.png,./IMAGES_ONLINE_EXPERIMENT/FEMALE_CFD-WF-036-030-HC_ILL10_C5.png,./IMAGES_ONLINE_EXPERIMENT/FEMALE_CFD-WF-005-010-N_ILL10_C3.png,./IMAGES_ONLINE_EXPERIMENT/FEMALE_CFD-WF-003-014-A_ILL10_C2.png,./IMAGES_ONLINE_EXPERIMENT/FEMALE_CFD-WF-023-020-HO_ILL7.png,,
,,,,,21236,001,F,20,2026-03-23_12h22.25.920,RUN_BETA,2026.1.0,Win32,59.88023952,564.4497,564.9495,564.9512,568.5311,[0.5861111393681279],[0.3027777671813965],[1],[0],[0],[3.580500000000029],0,108,108,77,1,./IMAGES_ONLINE_EXPERIMENT/FEMALE_CFD-WF-023-003-N_ILL9_C4.png,./IMAGES_ONLINE_EXPERIMENT/FEMALE_CFD-WF-031-027-N_ILL9_C6.png,./IMAGES_ONLINE_EXPERIMENT/FEMALE_CFD-WF-036-030-HC_ILL9_C2.png,./IMAGES_ONLINE_EXPERIMENT/FEMALE_CFD-WF-007-001-N_ILL9_C1.png,./IMAGES_ONLINE_EXPERIMENT/FEMALE_CFD-WF-006-011-F_ILL9_C5.png,./IMAGES_ONLINE_EXPERIMENT/FEMALE_CFD-WF-018-018-HO_ILL9_C3.png,./IMAGES_ONLINE_EXPERIMENT/FEMALE_CFD-WF-031-009-HC_ILL9.png,,
,,,,,21236,001,F,20,2026-03-23_12h22.25.920,RUN_BETA,2026.1.0,Win32,59.88023952,568.5321,569.031,569.0322,573.063,[0.0749999858714916],[-0.22314813401963976],[1],[0],[0],[4.03120000000024],0,109,109,65,1,./IMAGES_ONLINE_EXPERIMENT/FEMALE_CFD-WF-037-016-A_ILL9_C2.png,./IMAGES_ONLINE_EXPERIMENT/FEMALE_CFD-WF-011-006-HC_ILL9_C1.png,./IMAGES_ONLINE_EXPERIMENT/FEMALE_CFD-WF-018-018-HO_ILL9_C6.png,./IMAGES_ONLINE_EXPERIMENT/FEMALE_CFD-WF-025-006-HO_ILL9_C5.png,./IMAGES_ONLINE_EXPERIMENT/FEMALE_CFD-WF-015-006-N_ILL9_C4.png,./IMAGES_ONLINE_EXPERIMENT/FEMALE_CFD-WF-003-014-A_ILL9_C3.png,./IMAGES_ONLINE_EXPERIMENT/FEMALE_CFD-WF-018-019-HC_ILL9.png,,
,,,,,21236,001,F,20,2026-03-23_12h22.25.920,RUN_BETA,2026.1.0,Win32,59.88023952,573.0643,573.5636,573.565,576.9618,[0.5287037602177372],[0.21944443384806314],[1],[0],[0],[3.3972000000002254],0,110,110,38,1,./IMAGES_ONLINE_EXPERIMENT/FEMALE_CFD-WF-013-006-HO_ILL10_C4.png,./IMAGES_ONLINE_EXPERIMENT/FEMALE_CFD-WF-011-002-N_ILL10_C1.png,./IMAGES_ONLINE_EXPERIMENT/FEMALE_CFD-WF-003-007-HC_ILL10_C5.png,./IMAGES_ONLINE_EXPERIMENT/FEMALE_CFD-WF-028-025-HC_ILL10_C6.png,./IMAGES_ONLINE_EXPERIMENT/FEMALE_CFD-WF-025-031-F_ILL10_C2.png,./IMAGES_ONLINE_EXPERIMENT/FEMALE_CFD-WF-022-019-HO_ILL10_C3.png,./IMAGES_ONLINE_EXPERIMENT/FEMALE_CFD-WF-028-026-A_ILL10.png,,
,,,,,21236,001,F,20,2026-03-23_12h22.25.920,RUN_BETA,2026.1.0,Win32,59.88023952,576.9634,577.4619,577.4636,581.3937,[0.05185183772334346],[-0.2564815238670067],[1],[0],[0],[3.930500000000052],0,111,111,41,1,./IMAGES_ONLINE_EXPERIMENT/FEMALE_CFD-WF-003-007-HC_ILL9_C1.png,./IMAGES_ONLINE_EXPERIMENT/FEMALE_CFD-WF-013-015-A_ILL9_C5.png,./IMAGES_ONLINE_EXPERIMENT/FEMALE_CFD-WF-027-021-HO_ILL9_C2.png,./IMAGES_ONLINE_EXPERIMENT/FEMALE_CFD-WF-027-003-N_ILL9_C3.png,./IMAGES_ONLINE_EXPERIMENT/FEMALE_CFD-WF-021-013-F_ILL9_C6.png,./IMAGES_ONLINE_EXPERIMENT/FEMALE_CFD-WF-038-033-F_ILL9_C4.png,./IMAGES_ONLINE_EXPERIMENT/FEMALE_CFD-WF-021-006-HC_ILL9.png,,
,,,,,21236,001,F,20,2026-03-23_12h22.25.920,RUN_BETA,2026.1.0,Win32,59.88023952,581.3948,581.8939,581.8952,584.0929,[0.05185183772334346],[-0.2564815238670067],[1],[0],[0],[2.197999999999979],0,112,112,117,1,./IMAGES_ONLINE_EXPERIMENT/MALES_CFD-WM-013-006-HO_ILL10_C5.png,./IMAGES_ONLINE_EXPERIMENT/MALES_CFD-WM-022-012-F_ILL10_C6.png,./IMAGES_ONLINE_EXPERIMENT/MALES_CFD-WM-031-004-HO_ILL10_C3.png,./IMAGES_ONLINE_EXPERIMENT/MALES_CFD-WM-012-026-F_ILL10_C1.png,./IMAGES_ONLINE_EXPERIMENT/MALES_CFD-WM-036-031-N_ILL10_C2.png,./IMAGES_ONLINE_EXPERIMENT/MALES_CFD-WM-018-007-A_ILL10_C4.png,./IMAGES_ONLINE_EXPERIMENT/MALES_CFD-WM-022-005-HO_ILL10.png,,
,,,,,21236,001,F,20,2026-03-23_12h22.25.920,RUN_BETA,2026.1.0,Win32,59.88023952,584.0936,584.5931,584.5945,589.7412,[-0.5],[-0.28148149560998986],[1],[0],[0],[5.147199999999316],0,113,113,63,1,./IMAGES_ONLINE_EXPERIMENT/FEMALE_CFD-WF-028-025-HC_ILL10_C2.png,./IMAGES_ONLINE_EXPERIMENT/FEMALE_CFD-WF-025-006-HO_ILL10_C3.png,./IMAGES_ONLINE_EXPERIMENT/FEMALE_CFD-WF-025-031-F_ILL10_C1.png,./IMAGES_ONLINE_EXPERIMENT/FEMALE_CFD-WF-025-023-HC_ILL10_C4.png,./IMAGES_ONLINE_EXPERIMENT/FEMALE_CFD-WF-012-007-HO_ILL10_C6.png,./IMAGES_ONLINE_EXPERIMENT/FEMALE_CFD-WF-016-021-A_ILL10_C5.png,./IMAGES_ONLINE_EXPERIMENT/FEMALE_CFD-WF-012-012-A_ILL10.png,,
,,,,,21236,001,F,20,2026-03-23_12h22.25.920,RUN_BETA,2026.1.0,Win32,59.88023952,589.7425,590.2415,590.2431,593.9066,[-0.5490740670098199],[0.2527777707135236],[1],[0],[0],[3.664199999999255],0,114,114,94,1,./IMAGES_ONLINE_EXPERIMENT/MALES_CFD-WM-033-006-HC_ILL7_C5.png,./IMAGES_ONLINE_EXPERIMENT/MALES_CFD-WM-029-009-HC_ILL7_C3.png,./IMAGES_ONLINE_EXPERIMENT/MALES_CFD-WM-039-018-N_ILL7_C4.png,./IMAGES_ONLINE_EXPERIMENT/MALES_CFD-WM-033-025-N_ILL7_C2.png,./IMAGES_ONLINE_EXPERIMENT/MALES_CFD-WM-009-014-F_ILL7_C6.png,./IMAGES_ONLINE_EXPERIMENT/MALES_CFD-WM-026-001-N_ILL7_C1.png,./IMAGES_ONLINE_EXPERIMENT/MALES_CFD-WM-009-004-HO_ILL7.png,,
,,,,,21236,001,F,20,2026-03-23_12h22.25.920,RUN_BETA,2026.1.0,Win32,59.88023952,593.9077,594.4064,594.4077,598.5884,[-0.4722222222222222],[0.30185185538397896],[1],[0],[0],[4.18100000000004],0,115,115,58,1,./IMAGES_ONLINE_EXPERIMENT/MALES_CFD-WM-006-022-A_ILL7_C3.png,./IMAGES_ONLINE_EXPERIMENT/MALES_CFD-WM-016-002-HO_ILL7_C4.png,./IMAGES_ONLINE_EXPERIMENT/MALES_CFD-WM-029-014-A_ILL7_C2.png,./IMAGES_ONLINE_EXPERIMENT/MALES_CFD-WM-020-008-A_ILL7_C5.png,./IMAGES_ONLINE_EXPERIMENT/MALES_CFD-WM-035-036-HC_ILL7_C1.png,./IMAGES_ONLINE_EXPERIMENT/MALES_CFD-WM-036-047-F_ILL7_C6.png,./IMAGES_ONLINE_EXPERIMENT/MALES_CFD-WM-036-031-N_ILL7.png,,
,,,,,21236,001,F,20,2026-03-23_12h22.25.920,RUN_BETA,2026.1.0,Win32,59.88023952,598.5897,599.0882,599.0899,601.5874,[-0.3916666596024125],[-0.3037037319607205],[1],[0],[0],[2.4984000000004016],0,116,116,92,1,./IMAGES_ONLINE_EXPERIMENT/MALES_CFD-WM-010-004-HO_ILL10_C5.png,./IMAGES_ONLINE_EXPERIMENT/MALES_CFD-WM-036-034-HO_ILL10_C3.png,./IMAGES_ONLINE_EXPERIMENT/MALES_CFD-WM-038-011-A_ILL10_C6.png,./IMAGES_ONLINE_EXPERIMENT/MALES_CFD-WM-023-007-HC_ILL10_C4.png,./IMAGES_ONLINE_EXPERIMENT/MALES_CFD-WM-023-015-F_ILL10_C2.png,./IMAGES_ONLINE_EXPERIMENT/MALES_CFD-WM-002-008-HC_ILL10_C1.png,./IMAGES_ONLINE_EXPERIMENT/MALES_CFD-WM-038-007-HC_ILL10.png,,
,,,,,21236,001,F,20,2026-03-23_12h22.25.920,RUN_BETA,2026.1.0,Win32,59.88023952,601.5888,602.0873,602.0885,605.203,[0.6166667231807003],[-0.2916666666666667],[1],[0],[0],[3.1149000000003753],0,117,117,42,1,./IMAGES_ONLINE_EXPERIMENT/MALES_CFD-WM-025-022-F_ILL10_C6.png,./IMAGES_ONLINE_EXPERIMENT/MALES_CFD-WM-021-001-N_ILL10_C1.png,./IMAGES_ONLINE_EXPERIMENT/MALES_CFD-WM-032-021-F_ILL10_C5.png,./IMAGES_ONLINE_EXPERIMENT/MALES_CFD-WM-004-005-HC_ILL10_C4.png,./IMAGES_ONLINE_EXPERIMENT/MALES_CFD-WM-026-006-HO_ILL10_C2.png,./IMAGES_ONLINE_EXPERIMENT/MALES_CFD-WM-028-029-A_ILL10_C3.png,./IMAGES_ONLINE_EXPERIMENT/MALES_CFD-WM-025-002-N_ILL7.png,,
,,,,,21236,001,F,20,2026-03-23_12h22.25.920,RUN_BETA,2026.1.0,Win32,59.88023952,605.2038,605.7032,605.7049,609.3183,[-0.05833329094780816],[-0.3037037319607205],[1],[0],[0],[3.6140000000000327],0,118,118,87,1,./IMAGES_ONLINE_EXPERIMENT/FEMALE_CFD-WF-019-024-F_ILL10_C3.png,./IMAGES_ONLINE_EXPERIMENT/FEMALE_CFD-WF-024-010-HC_ILL10_C4.png,./IMAGES_ONLINE_EXPERIMENT/FEMALE_CFD-WF-001-010-HC_ILL10_C1.png,./IMAGES_ONLINE_EXPERIMENT/FEMALE_CFD-WF-029-026-A_ILL10_C5.png,./IMAGES_ONLINE_EXPERIMENT/FEMALE_CFD-WF-034-006-N_ILL10_C6.png,./IMAGES_ONLINE_EXPERIMENT/FEMALE_CFD-WF-022-023-A_ILL10_C2.png,./IMAGES_ONLINE_EXPERIMENT/FEMALE_CFD-WF-034-016-A_ILL10.png,,
,,,,,21236,001,F,20,2026-03-23_12h22.25.920,RUN_BETA,2026.1.0,Win32,59.88023952,609.3195,609.8182,609.8195,614.9334,[-0.4601851922494394],[-0.2759259541829427],[1],[0],[0],[5.114299999999844],0,119,119,13,1,./IMAGES_ONLINE_EXPERIMENT/FEMALE_CFD-WF-006-003-HC_ILL10_C2.png,./IMAGES_ONLINE_EXPERIMENT/FEMALE_CFD-WF-008-003-HO_ILL10_C5.png,./IMAGES_ONLINE_EXPERIMENT/FEMALE_CFD-WF-027-021-HO_ILL10_C4.png,./IMAGES_ONLINE_EXPERIMENT/FEMALE_CFD-WF-014-012-A_ILL10_C6.png,./IMAGES_ONLINE_EXPERIMENT/FEMALE_CFD-WF-029-002-N_ILL10_C3.png,./IMAGES_ONLINE_EXPERIMENT/FEMALE_CFD-WF-037-024-F_ILL10_C1.png,./IMAGES_ONLINE_EXPERIMENT/FEMALE_CFD-WF-014-009-HC_ILL9.png,,
