instructions.started,instructions.stopped,key_resp.keys,key_resp.rt,key_resp.duration,participant,session,date,expName,psychopyVersion,OS,frameRate,fixation.started,fixation.stopped,trial.started,trial.stopped,mouse.x,mouse.y,mouse.leftButton,mouse.midButton,mouse.rightButton,mouse.time,trials.thisRepN,trials.thisTrialN,trials.thisN,trials.thisIndex,trials.ran,COMP1,COMP2,COMP3,COMP4,COMP5,COMP6,TEST_FACE,ILLUMINANT_TEST,ILLUMINANT_LINEUP
0.0003,3.2993,return,3.277,,213523,001,2026-03-18_10h48.28.775,RUN_BETA,2026.1.0,MacIntel,59.52380952,,,,,,,,,,,,,,,,,,,,,,,,
,,,,,213523,001,2026-03-18_10h48.28.775,RUN_BETA,2026.1.0,MacIntel,59.52380952,3.3314,3.7985,3.801,6.8164,[0.5534396701388888],[-0.24320023148148148],[1],[0],[0],[3.0158000000119216],0,0,0,101,1,./IMAGES_ONLINE_EXPERIMENT/FEMALE_CFD-WF-028-023-N_ILL9_T102_C5.png,./IMAGES_ONLINE_EXPERIMENT/FEMALE_CFD-WF-033-041-HC_ILL9_T102_C3.png,./IMAGES_ONLINE_EXPERIMENT/FEMALE_CFD-WF-015-006-N_ILL9_T102_C1.png,./IMAGES_ONLINE_EXPERIMENT/FEMALE_CFD-WF-034-061-HC_ILL9_T102_C2.png,./IMAGES_ONLINE_EXPERIMENT/FEMALE_CFD-WF-024-029-A_ILL9_T102_C4.png,./IMAGES_ONLINE_EXPERIMENT/FEMALE_CFD-WF-012-002-N_ILL9_T102_C6.png,./IMAGES_ONLINE_EXPERIMENT/FEMALE_CFD-WF-012-004-HC_ILL9_T102.png,,
,,,,,213523,001,2026-03-18_10h48.28.775,RUN_BETA,2026.1.0,MacIntel,59.52380952,6.8171,7.3157,7.3175,11.2147,[-0.45791377314814813],[-0.2949761284722222],[1],[0],[0],[3.897799999952314],0,1,1,84,1,./IMAGES_ONLINE_EXPERIMENT/MALES_CFD-WM-004-006-HO_ILL10_T85_C2.png,./IMAGES_ONLINE_EXPERIMENT/MALES_CFD-WM-010-004-HO_ILL10_T85_C6.png,./IMAGES_ONLINE_EXPERIMENT/MALES_CFD-WM-039-004-HC_ILL10_T85_C5.png,./IMAGES_ONLINE_EXPERIMENT/MALES_CFD-WM-024-019-F_ILL10_T85_C3.png,./IMAGES_ONLINE_EXPERIMENT/MALES_CFD-WM-004-010-N_ILL10_T85_C4.png,./IMAGES_ONLINE_EXPERIMENT/MALES_CFD-WM-038-011-A_ILL10_T85_C1.png,./IMAGES_ONLINE_EXPERIMENT/MALES_CFD-WM-010-007-HC_ILL10_T85.png,,
,,,,,213523,001,2026-03-18_10h48.28.775,RUN_BETA,2026.1.0,MacIntel,59.52380952,11.2154,11.7151,11.717,14.581,[0.5351851851851852],[-0.28621961805555557],[1],[0],[0],[2.864799999952318],0,2,2,86,1,./IMAGES_ONLINE_EXPERIMENT/MALES_CFD-WM-011-011-A_ILL10_T87_C2.png,./IMAGES_ONLINE_EXPERIMENT/MALES_CFD-WM-018-005-HC_ILL10_T87_C5.png,./IMAGES_ONLINE_EXPERIMENT/MALES_CFD-WM-037-033-HC_ILL10_T87_C6.png,./IMAGES_ONLINE_EXPERIMENT/MALES_CFD-WM-039-010-A_ILL10_T87_C1.png,./IMAGES_ONLINE_EXPERIMENT/MALES_CFD-WM-035-028-F_ILL10_T87_C4.png,./IMAGES_ONLINE_EXPERIMENT/MALES_CFD-WM-002-009-N_ILL10_T87_C3.png,./IMAGES_ONLINE_EXPERIMENT/MALES_CFD-WM-037-063-F_ILL10_T87.png,,
,,,,,213523,001,2026-03-18_10h48.28.775,RUN_BETA,2026.1.0,MacIntel,59.52380952,14.5817,15.0822,15.0841,18.5487,[0.5062861689814815],[0.2688802083333333],[1],[0],[0],[3.4653999999761567],0,3,3,41,1,./IMAGES_ONLINE_EXPERIMENT/FEMALE_CFD-WF-028-025-HC_ILL10_T42_C3.png,./IMAGES_ONLINE_EXPERIMENT/FEMALE_CFD-WF-028-023-N_ILL10_T42_C2.png,./IMAGES_ONLINE_EXPERIMENT/FEMALE_CFD-WF-011-016-F_ILL10_T42_C6.png,./IMAGES_ONLINE_EXPERIMENT/FEMALE_CFD-WF-007-001-N_ILL10_T42_C5.png,./IMAGES_ONLINE_EXPERIMENT/FEMALE_CFD-WF-018-019-HC_ILL10_T42_C4.png,./IMAGES_ONLINE_EXPERIMENT/FEMALE_CFD-WF-016-024-F_ILL10_T42_C1.png,./IMAGES_ONLINE_EXPERIMENT/FEMALE_CFD-WF-011-002-N_ILL7_T42.png,,
,,,,,213523,001,2026-03-18_10h48.28.775,RUN_BETA,2026.1.0,MacIntel,59.52380952,18.5493,19.049,19.051,21.3979,[0.05638744212962963],[-0.2657407407407407],[1],[0],[0],[2.3475999999642383],0,4,4,48,1,./IMAGES_ONLINE_EXPERIMENT/MALES_CFD-WM-032-001-N_ILL10_T49_C6.png,./IMAGES_ONLINE_EXPERIMENT/MALES_CFD-WM-019-003-N_ILL10_T49_C4.png,./IMAGES_ONLINE_EXPERIMENT/MALES_CFD-WM-011-002-N_ILL10_T49_C5.png,./IMAGES_ONLINE_EXPERIMENT/MALES_CFD-WM-018-005-HC_ILL10_T49_C1.png,./IMAGES_ONLINE_EXPERIMENT/MALES_CFD-WM-026-001-N_ILL10_T49_C3.png,./IMAGES_ONLINE_EXPERIMENT/MALES_CFD-WM-025-019-HO_ILL10_T49_C2.png,./IMAGES_ONLINE_EXPERIMENT/MALES_CFD-WM-032-014-A_ILL9_T49.png,,
,,,,,213523,001,2026-03-18_10h48.28.775,RUN_BETA,2026.1.0,MacIntel,59.52380952,21.3985,21.8988,21.9004,24.2486,[-0.0009150752314814814],[0.22608506944444445],[1],[0],[0],[2.34880000001192],0,5,5,83,1,./IMAGES_ONLINE_EXPERIMENT/MALES_CFD-WM-036-037-HC_ILL10_T84_C2.png,./IMAGES_ONLINE_EXPERIMENT/MALES_CFD-WM-038-003-N_ILL10_T84_C6.png,./IMAGES_ONLINE_EXPERIMENT/MALES_CFD-WM-015-002-N_ILL10_T84_C5.png,./IMAGES_ONLINE_EXPERIMENT/MALES_CFD-WM-029-020-F_ILL10_T84_C3.png,./IMAGES_ONLINE_EXPERIMENT/MALES_CFD-WM-013-006-HO_ILL10_T84_C1.png,./IMAGES_ONLINE_EXPERIMENT/MALES_CFD-WM-025-002-N_ILL10_T84_C4.png,./IMAGES_ONLINE_EXPERIMENT/MALES_CFD-WM-038-005-HO_ILL10_T84.png,,
,,,,,213523,001,2026-03-18_10h48.28.775,RUN_BETA,2026.1.0,MacIntel,59.52380952,24.2492,24.7488,24.7509,29.615,[0.4798538773148148],[0.21689091435185184],[1],[0],[0],[4.864800000011918],0,6,6,66,1,./IMAGES_ONLINE_EXPERIMENT/FEMALE_CFD-WF-028-023-N_ILL10_T67_C5.png,./IMAGES_ONLINE_EXPERIMENT/FEMALE_CFD-WF-003-007-HC_ILL10_T67_C2.png,./IMAGES_ONLINE_EXPERIMENT/FEMALE_CFD-WF-014-023-F_ILL10_T67_C4.png,./IMAGES_ONLINE_EXPERIMENT/FEMALE_CFD-WF-036-030-HC_ILL10_T67_C3.png,./IMAGES_ONLINE_EXPERIMENT/FEMALE_CFD-WF-031-045-F_ILL10_T67_C1.png,./IMAGES_ONLINE_EXPERIMENT/FEMALE_CFD-WF-038-027-HC_ILL10_T67_C6.png,./IMAGES_ONLINE_EXPERIMENT/FEMALE_CFD-WF-038-030-A_ILL7_T67.png,,
,,,,,213523,001,2026-03-18_10h48.28.775,RUN_BETA,2026.1.0,MacIntel,59.52380952,29.6153,30.1149,30.1157,34.1318,[-0.026099537037037036],[-0.3095015914351852],[1],[0],[0],[4.016399999976159],0,7,7,7,1,./IMAGES_ONLINE_EXPERIMENT/MALES_CFD-WM-026-001-N_ILL10_T8_C5.png,./IMAGES_ONLINE_EXPERIMENT/MALES_CFD-WM-034-040-A_ILL10_T8_C4.png,./IMAGES_ONLINE_EXPERIMENT/MALES_CFD-WM-001-014-N_ILL10_T8_C2.png,./IMAGES_ONLINE_EXPERIMENT/MALES_CFD-WM-031-032-F_ILL10_T8_C1.png,./IMAGES_ONLINE_EXPERIMENT/MALES_CFD-WM-012-007-HC_ILL10_T8_C3.png,./IMAGES_ONLINE_EXPERIMENT/MALES_CFD-WM-009-009-A_ILL10_T8_C6.png,./IMAGES_ONLINE_EXPERIMENT/MALES_CFD-WM-009-002-N_ILL7_T8.png,,
,,,,,213523,001,2026-03-18_10h48.28.775,RUN_BETA,2026.1.0,MacIntel,59.52380952,34.1325,34.6321,34.634,40.9144,[0.04093605324074074],[-0.23446903935185184],[1],[0],[0],[6.2811999999880825],0,8,8,58,1,./IMAGES_ONLINE_EXPERIMENT/MALES_CFD-WM-017-011-A_ILL10_T59_C5.png,./IMAGES_ONLINE_EXPERIMENT/MALES_CFD-WM-012-001-N_ILL10_T59_C6.png,./IMAGES_ONLINE_EXPERIMENT/MALES_CFD-WM-040-023-HO_ILL10_T59_C2.png,./IMAGES_ONLINE_EXPERIMENT/MALES_CFD-WM-040-022-N_ILL10_T59_C3.png,./IMAGES_ONLINE_EXPERIMENT/MALES_CFD-WM-039-028-F_ILL10_T59_C4.png,./IMAGES_ONLINE_EXPERIMENT/MALES_CFD-WM-023-012-A_ILL10_T59_C1.png,./IMAGES_ONLINE_EXPERIMENT/MALES_CFD-WM-012-005-HO_ILL9_T59.png,,
,,,,,213523,001,2026-03-18_10h48.28.775,RUN_BETA,2026.1.0,MacIntel,59.52380952,40.9149,41.4147,41.4165,44.0815,[0.5381799768518518],[0.2580222800925926],[1],[0],[0],[2.6657999999523128],0,9,9,119,1,./IMAGES_ONLINE_EXPERIMENT/MALES_CFD-WM-009-002-N_ILL10_T120_C5.png,./IMAGES_ONLINE_EXPERIMENT/MALES_CFD-WM-014-024-F_ILL10_T120_C4.png,./IMAGES_ONLINE_EXPERIMENT/MALES_CFD-WM-025-019-HO_ILL10_T120_C3.png,./IMAGES_ONLINE_EXPERIMENT/MALES_CFD-WM-040-023-HO_ILL10_T120_C1.png,./IMAGES_ONLINE_EXPERIMENT/MALES_CFD-WM-037-034-HO_ILL10_T120_C6.png,./IMAGES_ONLINE_EXPERIMENT/MALES_CFD-WM-020-008-A_ILL10_T120_C2.png,./IMAGES_ONLINE_EXPERIMENT/MALES_CFD-WM-037-033-HC_ILL10_T120.png,,
,,,,,213523,001,2026-03-18_10h48.28.775,RUN_BETA,2026.1.0,MacIntel,59.52380952,44.082,44.5819,44.5839,46.8652,[0.5267541956018519],[-0.2645471643518518],[1],[0],[0],[2.282099999964238],0,10,10,27,1,./IMAGES_ONLINE_EXPERIMENT/MALES_CFD-WM-021-009-A_ILL9_T28_C4.png,./IMAGES_ONLINE_EXPERIMENT/MALES_CFD-WM-033-053-F_ILL9_T28_C5.png,./IMAGES_ONLINE_EXPERIMENT/MALES_CFD-WM-001-011-HO_ILL9_T28_C6.png,./IMAGES_ONLINE_EXPERIMENT/MALES_CFD-WM-036-047-F_ILL9_T28_C3.png,./IMAGES_ONLINE_EXPERIMENT/MALES_CFD-WM-016-005-HC_ILL9_T28_C2.png,./IMAGES_ONLINE_EXPERIMENT/MALES_CFD-WM-010-020-F_ILL9_T28_C1.png,./IMAGES_ONLINE_EXPERIMENT/MALES_CFD-WM-001-007-HC_ILL9_T28.png,,
,,,,,213523,001,2026-03-18_10h48.28.775,RUN_BETA,2026.1.0,MacIntel,59.52380952,46.8659,47.3652,47.367,50.9648,[-0.5217158564814814],[0.24884620949074074],[1],[0],[0],[3.5985000000000014],0,11,11,47,1,./IMAGES_ONLINE_EXPERIMENT/FEMALE_CFD-WF-019-035-HO_ILL10_T48_C5.png,./IMAGES_ONLINE_EXPERIMENT/FEMALE_CFD-WF-020-002-N_ILL10_T48_C6.png,./IMAGES_ONLINE_EXPERIMENT/FEMALE_CFD-WF-033-005-HO_ILL10_T48_C4.png,./IMAGES_ONLINE_EXPERIMENT/FEMALE_CFD-WF-007-026-F_ILL10_T48_C1.png,./IMAGES_ONLINE_EXPERIMENT/FEMALE_CFD-WF-013-015-A_ILL10_T48_C2.png,./IMAGES_ONLINE_EXPERIMENT/FEMALE_CFD-WF-017-016-HC_ILL10_T48_C3.png,./IMAGES_ONLINE_EXPERIMENT/FEMALE_CFD-WF-020-027-F_ILL9_T48.png,,
,,,,,213523,001,2026-03-18_10h48.28.775,RUN_BETA,2026.1.0,MacIntel,59.52380952,50.9654,51.4652,51.4667,55.4316,[0.4327076099537037],[-0.1976996527777778],[1],[0],[0],[3.9654999999999987],0,12,12,93,1,./IMAGES_ONLINE_EXPERIMENT/FEMALE_CFD-WF-013-006-HO_ILL10_T94_C6.png,./IMAGES_ONLINE_EXPERIMENT/FEMALE_CFD-WF-008-011-A_ILL10_T94_C2.png,./IMAGES_ONLINE_EXPERIMENT/FEMALE_CFD-WF-036-026-HO_ILL10_T94_C3.png,./IMAGES_ONLINE_EXPERIMENT/FEMALE_CFD-WF-027-003-N_ILL10_T94_C4.png,./IMAGES_ONLINE_EXPERIMENT/FEMALE_CFD-WF-028-025-HC_ILL10_T94_C5.png,./IMAGES_ONLINE_EXPERIMENT/FEMALE_CFD-WF-002-008-HC_ILL10_T94_C1.png,./IMAGES_ONLINE_EXPERIMENT/FEMALE_CFD-WF-013-009-HC_ILL10_T94.png,,
,,,,,213523,001,2026-03-18_10h48.28.775,RUN_BETA,2026.1.0,MacIntel,59.52380952,55.4321,55.9317,55.9336,59.6816,[-0.39197771990740743],[0.1790183738425926],[1],[0],[0],[3.748600000023849],0,13,13,38,1,./IMAGES_ONLINE_EXPERIMENT/FEMALE_CFD-WF-034-016-A_ILL9_T39_C5.png,./IMAGES_ONLINE_EXPERIMENT/FEMALE_CFD-WF-018-018-HO_ILL9_T39_C2.png,./IMAGES_ONLINE_EXPERIMENT/FEMALE_CFD-WF-002-025-F_ILL9_T39_C1.png,./IMAGES_ONLINE_EXPERIMENT/FEMALE_CFD-WF-027-014-A_ILL9_T39_C3.png,./IMAGES_ONLINE_EXPERIMENT/FEMALE_CFD-WF-009-004-HO_ILL9_T39_C6.png,./IMAGES_ONLINE_EXPERIMENT/FEMALE_CFD-WF-018-013-F_ILL9_T39_C4.png,./IMAGES_ONLINE_EXPERIMENT/FEMALE_CFD-WF-009-010-A_ILL9_T39.png,,
,,,,,213523,001,2026-03-18_10h48.28.775,RUN_BETA,2026.1.0,MacIntel,59.52380952,59.6821,60.1822,60.1837,63.2138,[0.043308738425925926],[0.20325520833333333],[1],[0],[0],[3.0307000000476876],0,14,14,116,1,./IMAGES_ONLINE_EXPERIMENT/MALES_CFD-WM-028-029-A_ILL7_T117_C1.png,./IMAGES_ONLINE_EXPERIMENT/MALES_CFD-WM-015-005-HO_ILL7_T117_C4.png,./IMAGES_ONLINE_EXPERIMENT/MALES_CFD-WM-024-019-F_ILL7_T117_C5.png,./IMAGES_ONLINE_EXPERIMENT/MALES_CFD-WM-017-005-HO_ILL7_T117_C2.png,./IMAGES_ONLINE_EXPERIMENT/MALES_CFD-WM-025-022-F_ILL7_T117_C6.png,./IMAGES_ONLINE_EXPERIMENT/MALES_CFD-WM-018-004-HO_ILL7_T117_C3.png,./IMAGES_ONLINE_EXPERIMENT/MALES_CFD-WM-025-002-N_ILL7_T117.png,,
,,,,,213523,001,2026-03-18_10h48.28.775,RUN_BETA,2026.1.0,MacIntel,59.52380952,63.2143,63.715,63.7169,70.2979,[0.49921875],[0.22300347222222222],[1],[0],[0],[6.581800000011924],0,15,15,71,1,./IMAGES_ONLINE_EXPERIMENT/FEMALE_CFD-WF-021-013-F_ILL10_T72_C5.png,./IMAGES_ONLINE_EXPERIMENT/FEMALE_CFD-WF-026-017-HO_ILL10_T72_C2.png,./IMAGES_ONLINE_EXPERIMENT/FEMALE_CFD-WF-034-006-N_ILL10_T72_C6.png,./IMAGES_ONLINE_EXPERIMENT/FEMALE_CFD-WF-007-005-HC_ILL10_T72_C4.png,./IMAGES_ONLINE_EXPERIMENT/FEMALE_CFD-WF-038-023-HO_ILL10_T72_C1.png,./IMAGES_ONLINE_EXPERIMENT/FEMALE_CFD-WF-039-025-N_ILL10_T72_C3.png,./IMAGES_ONLINE_EXPERIMENT/FEMALE_CFD-WF-034-016-A_ILL10_T72.png,,
,,,,,213523,001,2026-03-18_10h48.28.775,RUN_BETA,2026.1.0,MacIntel,59.52380952,70.2984,70.7984,70.8003,73.2304,[0.5384693287037037],[-0.27249348958333336],[1],[0],[0],[2.430800000011928],0,16,16,52,1,./IMAGES_ONLINE_EXPERIMENT/FEMALE_CFD-WF-035-027-HO_ILL10_T53_C4.png,./IMAGES_ONLINE_EXPERIMENT/FEMALE_CFD-WF-037-034-HC_ILL10_T53_C2.png,./IMAGES_ONLINE_EXPERIMENT/FEMALE_CFD-WF-006-002-N_ILL10_T53_C1.png,./IMAGES_ONLINE_EXPERIMENT/FEMALE_CFD-WF-018-013-F_ILL10_T53_C3.png,./IMAGES_ONLINE_EXPERIMENT/FEMALE_CFD-WF-030-026-F_ILL10_T53_C6.png,./IMAGES_ONLINE_EXPERIMENT/FEMALE_CFD-WF-017-012-F_ILL10_T53_C5.png,./IMAGES_ONLINE_EXPERIMENT/FEMALE_CFD-WF-030-033-A_ILL10_T53.png,,
,,,,,213523,001,2026-03-18_10h48.28.775,RUN_BETA,2026.1.0,MacIntel,59.52380952,73.231,73.7317,73.7338,79.1473,[0.04632523148148148],[-0.2525028935185185],[1],[0],[0],[5.41449999999999],0,17,17,51,1,./IMAGES_ONLINE_EXPERIMENT/FEMALE_CFD-WF-015-014-A_ILL10_T52_C1.png,./IMAGES_ONLINE_EXPERIMENT/FEMALE_CFD-WF-020-002-N_ILL10_T52_C5.png,./IMAGES_ONLINE_EXPERIMENT/FEMALE_CFD-WF-039-025-N_ILL10_T52_C4.png,./IMAGES_ONLINE_EXPERIMENT/FEMALE_CFD-WF-015-027-F_ILL10_T52_C3.png,./IMAGES_ONLINE_EXPERIMENT/FEMALE_CFD-WF-036-040-F_ILL10_T52_C2.png,./IMAGES_ONLINE_EXPERIMENT/FEMALE_CFD-WF-023-021-HC_ILL10_T52_C6.png,./IMAGES_ONLINE_EXPERIMENT/FEMALE_CFD-WF-023-013-A_ILL7_T52.png,,
,,,,,213523,001,2026-03-18_10h48.28.775,RUN_BETA,2026.1.0,MacIntel,59.52380952,79.1479,79.6484,79.6493,83.0981,[0.5228190104166667],[-0.29104817708333336],[1],[0],[0],[3.4490999999642327],0,18,18,85,1,./IMAGES_ONLINE_EXPERIMENT/FEMALE_CFD-WF-003-004-HO_ILL10_T86_C3.png,./IMAGES_ONLINE_EXPERIMENT/FEMALE_CFD-WF-005-010-N_ILL10_T86_C5.png,./IMAGES_ONLINE_EXPERIMENT/FEMALE_CFD-WF-037-029-N_ILL10_T86_C1.png,./IMAGES_ONLINE_EXPERIMENT/FEMALE_CFD-WF-025-023-HC_ILL10_T86_C2.png,./IMAGES_ONLINE_EXPERIMENT/FEMALE_CFD-WF-010-006-HO_ILL10_T86_C6.png,./IMAGES_ONLINE_EXPERIMENT/FEMALE_CFD-WF-022-007-HC_ILL10_T86_C4.png,./IMAGES_ONLINE_EXPERIMENT/FEMALE_CFD-WF-010-013-F_ILL9_T86.png,,
,,,,,213523,001,2026-03-18_10h48.28.775,RUN_BETA,2026.1.0,MacIntel,59.52380952,83.0989,83.5972,83.599,87.148,[0.00791015625],[-0.26357783564814813],[1],[0],[0],[3.5498000000119276],0,19,19,95,1,./IMAGES_ONLINE_EXPERIMENT/FEMALE_CFD-WF-019-035-HO_ILL10_T96_C5.png,./IMAGES_ONLINE_EXPERIMENT/FEMALE_CFD-WF-033-041-HC_ILL10_T96_C6.png,./IMAGES_ONLINE_EXPERIMENT/FEMALE_CFD-WF-014-002-N_ILL10_T96_C1.png,./IMAGES_ONLINE_EXPERIMENT/FEMALE_CFD-WF-014-004-HO_ILL10_T96_C3.png,./IMAGES_ONLINE_EXPERIMENT/FEMALE_CFD-WF-020-027-F_ILL10_T96_C2.png,./IMAGES_ONLINE_EXPERIMENT/FEMALE_CFD-WF-024-031-F_ILL10_T96_C4.png,./IMAGES_ONLINE_EXPERIMENT/FEMALE_CFD-WF-033-005-HO_ILL7_T96.png,,
,,,,,213523,001,2026-03-18_10h48.28.775,RUN_BETA,2026.1.0,MacIntel,59.52380952,87.1485,87.6471,87.649,90.7812,[0.5276656539351852],[-0.22392578125],[1],[0],[0],[3.1331000000238447],0,20,20,102,1,./IMAGES_ONLINE_EXPERIMENT/FEMALE_CFD-WF-036-040-F_ILL9_T103_C6.png,./IMAGES_ONLINE_EXPERIMENT/FEMALE_CFD-WF-028-023-N_ILL9_T103_C1.png,./IMAGES_ONLINE_EXPERIMENT/FEMALE_CFD-WF-019-024-F_ILL9_T103_C3.png,./IMAGES_ONLINE_EXPERIMENT/FEMALE_CFD-WF-023-013-A_ILL9_T103_C2.png,./IMAGES_ONLINE_EXPERIMENT/FEMALE_CFD-WF-015-014-A_ILL9_T103_C5.png,./IMAGES_ONLINE_EXPERIMENT/FEMALE_CFD-WF-014-004-HO_ILL9_T103_C4.png,./IMAGES_ONLINE_EXPERIMENT/FEMALE_CFD-WF-036-023-N_ILL9_T103.png,,
,,,,,213523,001,2026-03-18_10h48.28.775,RUN_BETA,2026.1.0,MacIntel,59.52380952,90.7817,91.281,91.283,94.9978,[-0.5412398726851851],[-0.25455367476851853],[1],[0],[0],[3.71570000004769],0,21,21,10,1,./IMAGES_ONLINE_EXPERIMENT/FEMALE_CFD-WF-024-031-F_ILL9_T11_C2.png,./IMAGES_ONLINE_EXPERIMENT/FEMALE_CFD-WF-025-023-HC_ILL9_T11_C3.png,./IMAGES_ONLINE_EXPERIMENT/FEMALE_CFD-WF-039-032-A_ILL9_T11_C4.png,./IMAGES_ONLINE_EXPERIMENT/FEMALE_CFD-WF-017-012-F_ILL9_T11_C5.png,./IMAGES_ONLINE_EXPERIMENT/FEMALE_CFD-WF-005-013-HO_ILL9_T11_C1.png,./IMAGES_ONLINE_EXPERIMENT/FEMALE_CFD-WF-023-020-HO_ILL9_T11_C6.png,./IMAGES_ONLINE_EXPERIMENT/FEMALE_CFD-WF-023-013-A_ILL9_T11.png,,
,,,,,213523,001,2026-03-18_10h48.28.775,RUN_BETA,2026.1.0,MacIntel,59.52380952,94.9984,95.497,95.4989,102.0309,[0.5237811053240741],[-0.267408130787037],[1],[0],[0],[6.532699999988083],0,22,22,20,1,./IMAGES_ONLINE_EXPERIMENT/FEMALE_CFD-WF-026-017-HO_ILL9_T21_C1.png,./IMAGES_ONLINE_EXPERIMENT/FEMALE_CFD-WF-003-004-HO_ILL9_T21_C4.png,./IMAGES_ONLINE_EXPERIMENT/FEMALE_CFD-WF-005-016-HC_ILL9_T21_C3.png,./IMAGES_ONLINE_EXPERIMENT/FEMALE_CFD-WF-018-019-HC_ILL9_T21_C2.png,./IMAGES_ONLINE_EXPERIMENT/FEMALE_CFD-WF-020-027-F_ILL9_T21_C5.png,./IMAGES_ONLINE_EXPERIMENT/FEMALE_CFD-WF-034-033-HO_ILL9_T21_C6.png,./IMAGES_ONLINE_EXPERIMENT/FEMALE_CFD-WF-034-016-A_ILL9_T21.png,,
,,,,,213523,001,2026-03-18_10h48.28.775,RUN_BETA,2026.1.0,MacIntel,59.52380952,102.0314,102.5314,102.5332,108.1479,[-0.4797706886574074],[0.21552734375],[1],[0],[0],[5.6155000000000115],0,23,23,74,1,./IMAGES_ONLINE_EXPERIMENT/FEMALE_CFD-WF-002-004-N_ILL7_T75_C2.png,./IMAGES_ONLINE_EXPERIMENT/FEMALE_CFD-WF-007-001-N_ILL7_T75_C5.png,./IMAGES_ONLINE_EXPERIMENT/FEMALE_CFD-WF-017-016-HC_ILL7_T75_C6.png,./IMAGES_ONLINE_EXPERIMENT/FEMALE_CFD-WF-028-019-F_ILL7_T75_C4.png,./IMAGES_ONLINE_EXPERIMENT/FEMALE_CFD-WF-018-019-HC_ILL7_T75_C3.png,./IMAGES_ONLINE_EXPERIMENT/FEMALE_CFD-WF-024-031-F_ILL7_T75_C1.png,./IMAGES_ONLINE_EXPERIMENT/FEMALE_CFD-WF-017-012-F_ILL7_T75.png,,
,,,,,213523,001,2026-03-18_10h48.28.775,RUN_BETA,2026.1.0,MacIntel,59.52380952,108.1486,108.6482,108.6502,113.181,[0.014659288194444444],[0.19794198495370371],[1],[0],[0],[4.531799999952312],0,24,24,59,1,./IMAGES_ONLINE_EXPERIMENT/FEMALE_CFD-WF-012-017-F_ILL10_T60_C1.png,./IMAGES_ONLINE_EXPERIMENT/FEMALE_CFD-WF-021-006-HC_ILL10_T60_C2.png,./IMAGES_ONLINE_EXPERIMENT/FEMALE_CFD-WF-022-017-N_ILL10_T60_C3.png,./IMAGES_ONLINE_EXPERIMENT/FEMALE_CFD-WF-020-002-N_ILL10_T60_C4.png,./IMAGES_ONLINE_EXPERIMENT/FEMALE_CFD-WF-034-016-A_ILL10_T60_C5.png,./IMAGES_ONLINE_EXPERIMENT/FEMALE_CFD-WF-019-005-N_ILL10_T60_C6.png,./IMAGES_ONLINE_EXPERIMENT/FEMALE_CFD-WF-019-024-F_ILL10_T60.png,,
,,,,,213523,001,2026-03-18_10h48.28.775,RUN_BETA,2026.1.0,MacIntel,59.52380952,113.1816,113.6813,113.6832,117.88,[0.014659288194444444],[0.19794198495370371],[1],[0],[0],[4.19760000002384],0,25,25,34,1,./IMAGES_ONLINE_EXPERIMENT/FEMALE_CFD-WF-003-003-N_ILL7_T35_C3.png,./IMAGES_ONLINE_EXPERIMENT/FEMALE_CFD-WF-014-004-HO_ILL7_T35_C2.png,./IMAGES_ONLINE_EXPERIMENT/FEMALE_CFD-WF-037-016-A_ILL7_T35_C6.png,./IMAGES_ONLINE_EXPERIMENT/FEMALE_CFD-WF-017-012-F_ILL7_T35_C4.png,./IMAGES_ONLINE_EXPERIMENT/FEMALE_CFD-WF-024-010-HC_ILL7_T35_C5.png,./IMAGES_ONLINE_EXPERIMENT/FEMALE_CFD-WF-033-035-F_ILL7_T35_C1.png,./IMAGES_ONLINE_EXPERIMENT/FEMALE_CFD-WF-037-029-N_ILL7_T35.png,,
,,,,,213523,001,2026-03-18_10h48.28.775,RUN_BETA,2026.1.0,MacIntel,59.52380952,117.8805,118.3806,118.3818,121.5644,[0.5309353298611111],[-0.2653754340277778],[1],[0],[0],[3.1830999999642415],0,26,26,15,1,./IMAGES_ONLINE_EXPERIMENT/FEMALE_CFD-WF-028-025-HC_ILL10_T16_C2.png,./IMAGES_ONLINE_EXPERIMENT/FEMALE_CFD-WF-034-061-HC_ILL10_T16_C5.png,./IMAGES_ONLINE_EXPERIMENT/FEMALE_CFD-WF-016-024-F_ILL10_T16_C1.png,./IMAGES_ONLINE_EXPERIMENT/FEMALE_CFD-WF-031-009-HC_ILL10_T16_C3.png,./IMAGES_ONLINE_EXPERIMENT/FEMALE_CFD-WF-023-021-HC_ILL10_T16_C6.png,./IMAGES_ONLINE_EXPERIMENT/FEMALE_CFD-WF-019-035-HO_ILL10_T16_C4.png,./IMAGES_ONLINE_EXPERIMENT/FEMALE_CFD-WF-023-020-HO_ILL10_T16.png,,
,,,,,213523,001,2026-03-18_10h48.28.775,RUN_BETA,2026.1.0,MacIntel,59.52380952,121.565,122.0647,122.0663,125.0809,[-0.04327256944444444],[-0.27863136574074077],[1],[0],[0],[3.0151999999880985],0,27,27,92,1,./IMAGES_ONLINE_EXPERIMENT/FEMALE_CFD-WF-023-003-N_ILL10_T93_C3.png,./IMAGES_ONLINE_EXPERIMENT/FEMALE_CFD-WF-036-026-HO_ILL10_T93_C4.png,./IMAGES_ONLINE_EXPERIMENT/FEMALE_CFD-WF-022-019-HO_ILL10_T93_C6.png,./IMAGES_ONLINE_EXPERIMENT/FEMALE_CFD-WF-030-031-HC_ILL10_T93_C5.png,./IMAGES_ONLINE_EXPERIMENT/FEMALE_CFD-WF-001-016-A_ILL10_T93_C2.png,./IMAGES_ONLINE_EXPERIMENT/FEMALE_CFD-WF-001-003-N_ILL10_T93_C1.png,./IMAGES_ONLINE_EXPERIMENT/FEMALE_CFD-WF-022-007-HC_ILL10_T93.png,,
,,,,,213523,001,2026-03-18_10h48.28.775,RUN_BETA,2026.1.0,MacIntel,59.52380952,125.0811,125.5815,125.5834,127.9809,[-0.00847800925925926],[0.23118851273148147],[1],[0],[0],[2.398300000011915],0,28,28,35,1,./IMAGES_ONLINE_EXPERIMENT/FEMALE_CFD-WF-016-003-HO_ILL10_T36_C3.png,./IMAGES_ONLINE_EXPERIMENT/FEMALE_CFD-WF-018-019-HC_ILL10_T36_C1.png,./IMAGES_ONLINE_EXPERIMENT/FEMALE_CFD-WF-025-019-N_ILL10_T36_C2.png,./IMAGES_ONLINE_EXPERIMENT/FEMALE_CFD-WF-036-026-HO_ILL10_T36_C5.png,./IMAGES_ONLINE_EXPERIMENT/FEMALE_CFD-WF-015-014-A_ILL10_T36_C6.png,./IMAGES_ONLINE_EXPERIMENT/FEMALE_CFD-WF-029-023-HC_ILL10_T36_C4.png,./IMAGES_ONLINE_EXPERIMENT/FEMALE_CFD-WF-015-027-F_ILL10_T36.png,,
,,,,,213523,001,2026-03-18_10h48.28.775,RUN_BETA,2026.1.0,MacIntel,59.52380952,127.9815,128.4812,128.4831,130.6144,[0.02749927662037037],[-0.22668909143518517],[1],[0],[0],[2.132000000000005],0,29,29,50,1,./IMAGES_ONLINE_EXPERIMENT/MALES_CFD-WM-012-007-HC_ILL10_T51_C4.png,./IMAGES_ONLINE_EXPERIMENT/MALES_CFD-WM-019-013-A_ILL10_T51_C1.png,./IMAGES_ONLINE_EXPERIMENT/MALES_CFD-WM-025-022-F_ILL10_T51_C5.png,./IMAGES_ONLINE_EXPERIMENT/MALES_CFD-WM-024-015-N_ILL10_T51_C2.png,./IMAGES_ONLINE_EXPERIMENT/MALES_CFD-WM-026-001-N_ILL10_T51_C3.png,./IMAGES_ONLINE_EXPERIMENT/MALES_CFD-WM-033-014-A_ILL10_T51_C6.png,./IMAGES_ONLINE_EXPERIMENT/MALES_CFD-WM-033-053-F_ILL7_T51.png,,
,,,,,213523,001,2026-03-18_10h48.28.775,RUN_BETA,2026.1.0,MacIntel,59.52380952,130.6152,131.1136,131.1155,136.031,[0.037731481481481484],[0.2673140914351852],[1],[0],[0],[4.9163000000119155],0,30,30,110,1,./IMAGES_ONLINE_EXPERIMENT/FEMALE_CFD-WF-031-005-HO_ILL10_T111_C4.png,./IMAGES_ONLINE_EXPERIMENT/FEMALE_CFD-WF-034-006-N_ILL10_T111_C5.png,./IMAGES_ONLINE_EXPERIMENT/FEMALE_CFD-WF-001-016-A_ILL10_T111_C2.png,./IMAGES_ONLINE_EXPERIMENT/FEMALE_CFD-WF-020-012-A_ILL10_T111_C3.png,./IMAGES_ONLINE_EXPERIMENT/FEMALE_CFD-WF-014-012-A_ILL10_T111_C1.png,./IMAGES_ONLINE_EXPERIMENT/FEMALE_CFD-WF-012-002-N_ILL10_T111_C6.png,./IMAGES_ONLINE_EXPERIMENT/FEMALE_CFD-WF-012-012-A_ILL10_T111.png,,
,,,,,213523,001,2026-03-18_10h48.28.775,RUN_BETA,2026.1.0,MacIntel,59.52380952,136.0316,136.5311,136.5329,138.6799,[0.5202763310185186],[-0.30771122685185187],[1],[0],[0],[2.147999999999996],0,31,31,111,1,./IMAGES_ONLINE_EXPERIMENT/MALES_CFD-WM-033-006-HC_ILL9_T112_C6.png,./IMAGES_ONLINE_EXPERIMENT/MALES_CFD-WM-035-028-F_ILL9_T112_C2.png,./IMAGES_ONLINE_EXPERIMENT/MALES_CFD-WM-010-007-HC_ILL9_T112_C1.png,./IMAGES_ONLINE_EXPERIMENT/MALES_CFD-WM-024-019-F_ILL9_T112_C5.png,./IMAGES_ONLINE_EXPERIMENT/MALES_CFD-WM-026-019-A_ILL9_T112_C3.png,./IMAGES_ONLINE_EXPERIMENT/MALES_CFD-WM-012-005-HO_ILL9_T112_C4.png,./IMAGES_ONLINE_EXPERIMENT/MALES_CFD-WM-033-014-A_ILL9_T112.png,,
,,,,,213523,001,2026-03-18_10h48.28.775,RUN_BETA,2026.1.0,MacIntel,59.52380952,138.6805,139.1806,139.1825,143.5477,[0.0248046875],[0.23010706018518517],[1],[0],[0],[4.3659999999999854],0,32,32,1,1,./IMAGES_ONLINE_EXPERIMENT/FEMALE_CFD-WF-033-002-N_ILL10_T2_C3.png,./IMAGES_ONLINE_EXPERIMENT/FEMALE_CFD-WF-021-016-HO_ILL10_T2_C6.png,./IMAGES_ONLINE_EXPERIMENT/FEMALE_CFD-WF-006-019-A_ILL10_T2_C1.png,./IMAGES_ONLINE_EXPERIMENT/FEMALE_CFD-WF-002-033-A_ILL10_T2_C4.png,./IMAGES_ONLINE_EXPERIMENT/FEMALE_CFD-WF-009-004-HO_ILL10_T2_C2.png,./IMAGES_ONLINE_EXPERIMENT/FEMALE_CFD-WF-034-028-F_ILL10_T2_C5.png,./IMAGES_ONLINE_EXPERIMENT/FEMALE_CFD-WF-021-018-A_ILL7_T2.png,,
,,,,,213523,001,2026-03-18_10h48.28.775,RUN_BETA,2026.1.0,MacIntel,59.52380952,143.5484,144.0467,144.0494,148.3142,[0.5349934895833334],[-0.26697771990740743],[1],[0],[0],[4.265500000000003],0,33,33,72,1,./IMAGES_ONLINE_EXPERIMENT/MALES_CFD-WM-033-053-F_ILL9_T73_C6.png,./IMAGES_ONLINE_EXPERIMENT/MALES_CFD-WM-015-017-A_ILL9_T73_C5.png,./IMAGES_ONLINE_EXPERIMENT/MALES_CFD-WM-022-012-F_ILL9_T73_C1.png,./IMAGES_ONLINE_EXPERIMENT/MALES_CFD-WM-014-004-HO_ILL9_T73_C4.png,./IMAGES_ONLINE_EXPERIMENT/MALES_CFD-WM-028-005-HC_ILL9_T73_C3.png,./IMAGES_ONLINE_EXPERIMENT/MALES_CFD-WM-010-020-F_ILL9_T73_C2.png,./IMAGES_ONLINE_EXPERIMENT/MALES_CFD-WM-033-007-HO_ILL9_T73.png,,
,,,,,213523,001,2026-03-18_10h48.28.775,RUN_BETA,2026.1.0,MacIntel,59.52380952,148.3148,148.8134,148.8147,151.7474,[0.022504340277777778],[0.2500904224537037],[1],[0],[0],[2.933100000023842],0,34,34,24,1,./IMAGES_ONLINE_EXPERIMENT/MALES_CFD-WM-026-001-N_ILL9_T25_C2.png,./IMAGES_ONLINE_EXPERIMENT/MALES_CFD-WM-020-003-HO_ILL9_T25_C5.png,./IMAGES_ONLINE_EXPERIMENT/MALES_CFD-WM-011-011-A_ILL9_T25_C6.png,./IMAGES_ONLINE_EXPERIMENT/MALES_CFD-WM-024-007-HC_ILL9_T25_C4.png,./IMAGES_ONLINE_EXPERIMENT/MALES_CFD-WM-040-023-HO_ILL9_T25_C1.png,./IMAGES_ONLINE_EXPERIMENT/MALES_CFD-WM-028-007-HO_ILL9_T25_C3.png,./IMAGES_ONLINE_EXPERIMENT/MALES_CFD-WM-011-006-HC_ILL9_T25.png,,
,,,,,213523,001,2026-03-18_10h48.28.775,RUN_BETA,2026.1.0,MacIntel,59.52380952,151.7479,152.2474,152.2487,155.8473,[0.5277524594907408],[-0.2541449652777778],[1],[0],[0],[3.5989999999999895],0,35,35,2,1,./IMAGES_ONLINE_EXPERIMENT/MALES_CFD-WM-031-038-HC_ILL10_T3_C3.png,./IMAGES_ONLINE_EXPERIMENT/MALES_CFD-WM-012-015-A_ILL10_T3_C5.png,./IMAGES_ONLINE_EXPERIMENT/MALES_CFD-WM-040-025-HC_ILL10_T3_C6.png,./IMAGES_ONLINE_EXPERIMENT/MALES_CFD-WM-018-002-N_ILL10_T3_C4.png,./IMAGES_ONLINE_EXPERIMENT/MALES_CFD-WM-002-007-HO_ILL10_T3_C2.png,./IMAGES_ONLINE_EXPERIMENT/MALES_CFD-WM-033-053-F_ILL10_T3_C1.png,./IMAGES_ONLINE_EXPERIMENT/MALES_CFD-WM-040-023-HO_ILL10_T3.png,,
,,,,,213523,001,2026-03-18_10h48.28.775,RUN_BETA,2026.1.0,MacIntel,59.52380952,155.848,156.3477,156.3513,158.8811,[0.5277524594907408],[-0.2541449652777778],[1],[0],[0],[2.5319999999999823],0,36,36,103,1,./IMAGES_ONLINE_EXPERIMENT/FEMALE_CFD-WF-008-005-HC_ILL7_T104_C2.png,./IMAGES_ONLINE_EXPERIMENT/FEMALE_CFD-WF-013-009-HC_ILL7_T104_C4.png,./IMAGES_ONLINE_EXPERIMENT/FEMALE_CFD-WF-010-004-N_ILL7_T104_C6.png,./IMAGES_ONLINE_EXPERIMENT/FEMALE_CFD-WF-008-003-HO_ILL7_T104_C1.png,./IMAGES_ONLINE_EXPERIMENT/FEMALE_CFD-WF-024-031-F_ILL7_T104_C3.png,./IMAGES_ONLINE_EXPERIMENT/FEMALE_CFD-WF-022-014-F_ILL7_T104_C5.png,./IMAGES_ONLINE_EXPERIMENT/FEMALE_CFD-WF-010-013-F_ILL7_T104.png,,
,,,,,213523,001,2026-03-18_10h48.28.775,RUN_BETA,2026.1.0,MacIntel,59.52380952,158.8817,159.3811,159.383,163.0141,[0.5156792534722222],[-0.2809714988425926],[1],[0],[0],[3.631899999976156],0,37,37,18,1,./IMAGES_ONLINE_EXPERIMENT/FEMALE_CFD-WF-002-004-N_ILL10_T19_C4.png,./IMAGES_ONLINE_EXPERIMENT/FEMALE_CFD-WF-025-006-HO_ILL10_T19_C1.png,./IMAGES_ONLINE_EXPERIMENT/FEMALE_CFD-WF-012-004-HC_ILL10_T19_C5.png,./IMAGES_ONLINE_EXPERIMENT/FEMALE_CFD-WF-036-040-F_ILL10_T19_C6.png,./IMAGES_ONLINE_EXPERIMENT/FEMALE_CFD-WF-003-014-A_ILL10_T19_C2.png,./IMAGES_ONLINE_EXPERIMENT/FEMALE_CFD-WF-016-017-HC_ILL10_T19_C3.png,./IMAGES_ONLINE_EXPERIMENT/FEMALE_CFD-WF-036-030-HC_ILL9_T19.png,,
,,,,,213523,001,2026-03-18_10h48.28.775,RUN_BETA,2026.1.0,MacIntel,59.52380952,163.0148,163.5143,163.5162,168.081,[-0.04684606481481481],[0.25610170717592595],[1],[0],[0],[4.565399999976165],0,38,38,99,1,./IMAGES_ONLINE_EXPERIMENT/FEMALE_CFD-WF-009-004-HO_ILL10_T100_C1.png,./IMAGES_ONLINE_EXPERIMENT/FEMALE_CFD-WF-003-007-HC_ILL10_T100_C2.png,./IMAGES_ONLINE_EXPERIMENT/FEMALE_CFD-WF-037-016-A_ILL10_T100_C6.png,./IMAGES_ONLINE_EXPERIMENT/FEMALE_CFD-WF-013-009-HC_ILL10_T100_C4.png,./IMAGES_ONLINE_EXPERIMENT/FEMALE_CFD-WF-018-018-HO_ILL10_T100_C3.png,./IMAGES_ONLINE_EXPERIMENT/FEMALE_CFD-WF-029-002-N_ILL10_T100_C5.png,./IMAGES_ONLINE_EXPERIMENT/FEMALE_CFD-WF-037-034-HC_ILL7_T100.png,,
,,,,,213523,001,2026-03-18_10h48.28.775,RUN_BETA,2026.1.0,MacIntel,59.52380952,168.0817,168.5809,168.5827,174.014,[-0.04684606481481481],[0.25610170717592595],[1],[0],[0],[5.431999999999988],0,39,39,45,1,./IMAGES_ONLINE_EXPERIMENT/MALES_CFD-WM-034-035-HO_ILL10_T46_C1.png,./IMAGES_ONLINE_EXPERIMENT/MALES_CFD-WM-001-011-HO_ILL10_T46_C3.png,./IMAGES_ONLINE_EXPERIMENT/MALES_CFD-WM-034-027-F_ILL10_T46_C4.png,./IMAGES_ONLINE_EXPERIMENT/MALES_CFD-WM-035-032-N_ILL10_T46_C5.png,./IMAGES_ONLINE_EXPERIMENT/MALES_CFD-WM-041-021-N_ILL10_T46_C6.png,./IMAGES_ONLINE_EXPERIMENT/MALES_CFD-WM-032-008-HC_ILL10_T46_C2.png,./IMAGES_ONLINE_EXPERIMENT/MALES_CFD-WM-041-023-HC_ILL10_T46.png,,
,,,,,213523,001,2026-03-18_10h48.28.775,RUN_BETA,2026.1.0,MacIntel,59.52380952,174.0146,174.5142,174.5164,178.0473,[0.5208514178240741],[0.23821252893518519],[1],[0],[0],[3.5317000000476924],0,40,40,46,1,./IMAGES_ONLINE_EXPERIMENT/FEMALE_CFD-WF-006-006-HO_ILL10_T47_C2.png,./IMAGES_ONLINE_EXPERIMENT/FEMALE_CFD-WF-034-006-N_ILL10_T47_C1.png,./IMAGES_ONLINE_EXPERIMENT/FEMALE_CFD-WF-010-006-HO_ILL10_T47_C5.png,./IMAGES_ONLINE_EXPERIMENT/FEMALE_CFD-WF-008-011-A_ILL10_T47_C3.png,./IMAGES_ONLINE_EXPERIMENT/FEMALE_CFD-WF-031-009-HC_ILL10_T47_C6.png,./IMAGES_ONLINE_EXPERIMENT/FEMALE_CFD-WF-027-021-HO_ILL10_T47_C4.png,./IMAGES_ONLINE_EXPERIMENT/FEMALE_CFD-WF-031-045-F_ILL9_T47.png,,
,,,,,213523,001,2026-03-18_10h48.28.775,RUN_BETA,2026.1.0,MacIntel,59.52380952,178.0478,178.5476,178.5495,182.1809,[0.49778645833333335],[0.21936487268518517],[1],[0],[0],[3.632100000023854],0,41,41,53,1,./IMAGES_ONLINE_EXPERIMENT/MALES_CFD-WM-017-005-HO_ILL7_T54_C1.png,./IMAGES_ONLINE_EXPERIMENT/MALES_CFD-WM-032-001-N_ILL7_T54_C3.png,./IMAGES_ONLINE_EXPERIMENT/MALES_CFD-WM-033-006-HC_ILL7_T54_C5.png,./IMAGES_ONLINE_EXPERIMENT/MALES_CFD-WM-002-009-N_ILL7_T54_C4.png,./IMAGES_ONLINE_EXPERIMENT/MALES_CFD-WM-016-001-N_ILL7_T54_C6.png,./IMAGES_ONLINE_EXPERIMENT/MALES_CFD-WM-039-008-HO_ILL7_T54_C2.png,./IMAGES_ONLINE_EXPERIMENT/MALES_CFD-WM-016-008-A_ILL7_T54.png,,
,,,,,213523,001,2026-03-18_10h48.28.775,RUN_BETA,2026.1.0,MacIntel,59.52380952,182.1819,182.6808,182.6837,185.4807,[0.5307508680555556],[-0.2345703125],[1],[0],[0],[2.7973999999761645],0,42,42,70,1,./IMAGES_ONLINE_EXPERIMENT/MALES_CFD-WM-013-006-HO_ILL10_T71_C5.png,./IMAGES_ONLINE_EXPERIMENT/MALES_CFD-WM-037-034-HO_ILL10_T71_C4.png,./IMAGES_ONLINE_EXPERIMENT/MALES_CFD-WM-018-004-HO_ILL10_T71_C6.png,./IMAGES_ONLINE_EXPERIMENT/MALES_CFD-WM-038-003-N_ILL10_T71_C2.png,./IMAGES_ONLINE_EXPERIMENT/MALES_CFD-WM-032-021-F_ILL10_T71_C3.png,./IMAGES_ONLINE_EXPERIMENT/MALES_CFD-WM-040-022-N_ILL10_T71_C1.png,./IMAGES_ONLINE_EXPERIMENT/MALES_CFD-WM-018-007-A_ILL9_T71.png,,
,,,,,213523,001,2026-03-18_10h48.28.775,RUN_BETA,2026.1.0,MacIntel,59.52380952,185.4812,185.9809,185.9831,188.4806,[0.4976490162037037],[-0.24014756944444443],[1],[0],[0],[2.498500000000007],0,43,43,0,1,./IMAGES_ONLINE_EXPERIMENT/FEMALE_CFD-WF-031-027-N_ILL10_T1_C5.png,./IMAGES_ONLINE_EXPERIMENT/FEMALE_CFD-WF-006-002-N_ILL10_T1_C4.png,./IMAGES_ONLINE_EXPERIMENT/FEMALE_CFD-WF-008-011-A_ILL10_T1_C6.png,./IMAGES_ONLINE_EXPERIMENT/FEMALE_CFD-WF-007-003-HO_ILL10_T1_C1.png,./IMAGES_ONLINE_EXPERIMENT/FEMALE_CFD-WF-014-023-F_ILL10_T1_C3.png,./IMAGES_ONLINE_EXPERIMENT/FEMALE_CFD-WF-012-004-HC_ILL10_T1_C2.png,./IMAGES_ONLINE_EXPERIMENT/FEMALE_CFD-WF-008-003-HO_ILL10_T1.png,,
,,,,,213523,001,2026-03-18_10h48.28.775,RUN_BETA,2026.1.0,MacIntel,59.52380952,188.4811,188.9808,188.983,192.8144,[0.03398799189814815],[-0.2894350405092593],[1],[0],[0],[3.8324000000357614],0,44,44,28,1,./IMAGES_ONLINE_EXPERIMENT/MALES_CFD-WM-003-008-A_ILL7_T29_C3.png,./IMAGES_ONLINE_EXPERIMENT/MALES_CFD-WM-011-003-HO_ILL7_T29_C1.png,./IMAGES_ONLINE_EXPERIMENT/MALES_CFD-WM-040-033-F_ILL7_T29_C6.png,./IMAGES_ONLINE_EXPERIMENT/MALES_CFD-WM-009-006-HC_ILL7_T29_C2.png,./IMAGES_ONLINE_EXPERIMENT/MALES_CFD-WM-034-027-F_ILL7_T29_C4.png,./IMAGES_ONLINE_EXPERIMENT/MALES_CFD-WM-039-004-HC_ILL7_T29_C5.png,./IMAGES_ONLINE_EXPERIMENT/MALES_CFD-WM-040-025-HC_ILL7_T29.png,,
,,,,,213523,001,2026-03-18_10h48.28.775,RUN_BETA,2026.1.0,MacIntel,59.52380952,192.8151,193.3142,193.3162,198.6465,[-0.5042607060185185],[-0.2622287326388889],[1],[0],[0],[5.331199999988087],0,45,45,9,1,./IMAGES_ONLINE_EXPERIMENT/MALES_CFD-WM-015-023-F_ILL9_T10_C3.png,./IMAGES_ONLINE_EXPERIMENT/MALES_CFD-WM-017-019-F_ILL9_T10_C5.png,./IMAGES_ONLINE_EXPERIMENT/MALES_CFD-WM-018-005-HC_ILL9_T10_C6.png,./IMAGES_ONLINE_EXPERIMENT/MALES_CFD-WM-010-020-F_ILL9_T10_C1.png,./IMAGES_ONLINE_EXPERIMENT/MALES_CFD-WM-034-030-N_ILL9_T10_C2.png,./IMAGES_ONLINE_EXPERIMENT/MALES_CFD-WM-024-010-A_ILL9_T10_C4.png,./IMAGES_ONLINE_EXPERIMENT/MALES_CFD-WM-018-002-N_ILL9_T10.png,,
,,,,,213523,001,2026-03-18_10h48.28.775,RUN_BETA,2026.1.0,MacIntel,59.52380952,198.6471,199.1475,199.1493,202.2474,[0.5088360821759259],[-0.2639359085648148],[1],[0],[0],[3.098700000047671],0,46,46,6,1,./IMAGES_ONLINE_EXPERIMENT/MALES_CFD-WM-016-008-A_ILL10_T7_C5.png,./IMAGES_ONLINE_EXPERIMENT/MALES_CFD-WM-023-004-HO_ILL10_T7_C6.png,./IMAGES_ONLINE_EXPERIMENT/MALES_CFD-WM-038-007-HC_ILL10_T7_C1.png,./IMAGES_ONLINE_EXPERIMENT/MALES_CFD-WM-014-002-N_ILL10_T7_C3.png,./IMAGES_ONLINE_EXPERIMENT/MALES_CFD-WM-018-007-A_ILL10_T7_C2.png,./IMAGES_ONLINE_EXPERIMENT/MALES_CFD-WM-041-021-N_ILL10_T7_C4.png,./IMAGES_ONLINE_EXPERIMENT/MALES_CFD-WM-023-001-N_ILL10_T7.png,,
,,,,,213523,001,2026-03-18_10h48.28.775,RUN_BETA,2026.1.0,MacIntel,59.52380952,202.2483,202.7474,202.7494,204.5139,[0.4831886574074074],[-0.23814742476851852],[1],[0],[0],[1.765300000011905],0,47,47,21,1,./IMAGES_ONLINE_EXPERIMENT/MALES_CFD-WM-013-001-N_ILL7_T22_C2.png,./IMAGES_ONLINE_EXPERIMENT/MALES_CFD-WM-023-004-HO_ILL7_T22_C6.png,./IMAGES_ONLINE_EXPERIMENT/MALES_CFD-WM-037-034-HO_ILL7_T22_C1.png,./IMAGES_ONLINE_EXPERIMENT/MALES_CFD-WM-014-013-A_ILL7_T22_C4.png,./IMAGES_ONLINE_EXPERIMENT/MALES_CFD-WM-035-032-N_ILL7_T22_C3.png,./IMAGES_ONLINE_EXPERIMENT/MALES_CFD-WM-036-037-HC_ILL7_T22_C5.png,./IMAGES_ONLINE_EXPERIMENT/MALES_CFD-WM-023-015-F_ILL7_T22.png,,
,,,,,213523,001,2026-03-18_10h48.28.775,RUN_BETA,2026.1.0,MacIntel,59.52380952,204.5148,205.0141,205.0161,209.2472,[0.5269929108796296],[0.24159071180555555],[1],[0],[0],[4.231799999952301],0,48,48,61,1,./IMAGES_ONLINE_EXPERIMENT/FEMALE_CFD-WF-010-004-N_ILL10_T62_C1.png,./IMAGES_ONLINE_EXPERIMENT/FEMALE_CFD-WF-009-015-F_ILL10_T62_C3.png,./IMAGES_ONLINE_EXPERIMENT/FEMALE_CFD-WF-009-001-N_ILL10_T62_C4.png,./IMAGES_ONLINE_EXPERIMENT/FEMALE_CFD-WF-024-029-A_ILL10_T62_C6.png,./IMAGES_ONLINE_EXPERIMENT/FEMALE_CFD-WF-016-024-F_ILL10_T62_C5.png,./IMAGES_ONLINE_EXPERIMENT/FEMALE_CFD-WF-033-031-A_ILL10_T62_C2.png,./IMAGES_ONLINE_EXPERIMENT/FEMALE_CFD-WF-024-006-HO_ILL10_T62.png,,
,,,,,213523,001,2026-03-18_10h48.28.775,RUN_BETA,2026.1.0,MacIntel,59.52380952,209.2477,209.7472,209.7491,211.5805,[0.509986255787037],[-0.2972366898148148],[1],[0],[0],[1.8321999999880632],0,49,49,12,1,./IMAGES_ONLINE_EXPERIMENT/MALES_CFD-WM-019-003-N_ILL10_T13_C2.png,./IMAGES_ONLINE_EXPERIMENT/MALES_CFD-WM-012-026-F_ILL10_T13_C4.png,./IMAGES_ONLINE_EXPERIMENT/MALES_CFD-WM-033-053-F_ILL10_T13_C6.png,./IMAGES_ONLINE_EXPERIMENT/MALES_CFD-WM-023-012-A_ILL10_T13_C5.png,./IMAGES_ONLINE_EXPERIMENT/MALES_CFD-WM-011-006-HC_ILL10_T13_C3.png,./IMAGES_ONLINE_EXPERIMENT/MALES_CFD-WM-032-008-HC_ILL10_T13_C1.png,./IMAGES_ONLINE_EXPERIMENT/MALES_CFD-WM-033-006-HC_ILL7_T13.png,,
,,,,,213523,001,2026-03-18_10h48.28.775,RUN_BETA,2026.1.0,MacIntel,59.52380952,211.581,212.0809,212.0827,215.7807,[0.023842592592592592],[-0.23820891203703703],[1],[0],[0],[3.698699999988065],0,50,50,44,1,./IMAGES_ONLINE_EXPERIMENT/MALES_CFD-WM-011-006-HC_ILL10_T45_C3.png,./IMAGES_ONLINE_EXPERIMENT/MALES_CFD-WM-037-060-A_ILL10_T45_C2.png,./IMAGES_ONLINE_EXPERIMENT/MALES_CFD-WM-022-003-HC_ILL10_T45_C4.png,./IMAGES_ONLINE_EXPERIMENT/MALES_CFD-WM-012-001-N_ILL10_T45_C6.png,./IMAGES_ONLINE_EXPERIMENT/MALES_CFD-WM-033-025-N_ILL10_T45_C1.png,./IMAGES_ONLINE_EXPERIMENT/MALES_CFD-WM-031-004-HO_ILL10_T45_C5.png,./IMAGES_ONLINE_EXPERIMENT/MALES_CFD-WM-012-026-F_ILL10_T45.png,,
,,,,,213523,001,2026-03-18_10h48.28.775,RUN_BETA,2026.1.0,MacIntel,59.52380952,215.7815,216.2807,216.2827,218.3808,[0.48360460069444444],[-0.20163483796296297],[1],[0],[0],[2.0989999999999895],0,51,51,89,1,./IMAGES_ONLINE_EXPERIMENT/MALES_CFD-WM-028-019-F_ILL9_T90_C6.png,./IMAGES_ONLINE_EXPERIMENT/MALES_CFD-WM-036-018-A_ILL9_T90_C3.png,./IMAGES_ONLINE_EXPERIMENT/MALES_CFD-WM-036-031-N_ILL9_T90_C1.png,./IMAGES_ONLINE_EXPERIMENT/MALES_CFD-WM-035-036-HC_ILL9_T90_C2.png,./IMAGES_ONLINE_EXPERIMENT/MALES_CFD-WM-040-007-A_ILL9_T90_C5.png,./IMAGES_ONLINE_EXPERIMENT/MALES_CFD-WM-039-004-HC_ILL9_T90_C4.png,./IMAGES_ONLINE_EXPERIMENT/MALES_CFD-WM-028-003-N_ILL9_T90.png,,
,,,,,213523,001,2026-03-18_10h48.28.775,RUN_BETA,2026.1.0,MacIntel,59.52380952,218.3815,218.8805,218.8823,222.5475,[0.015237991898148149],[-0.2543655960648148],[1],[0],[0],[3.6658000000119273],0,52,52,118,1,./IMAGES_ONLINE_EXPERIMENT/FEMALE_CFD-WF-003-025-F_ILL9_T119_C1.png,./IMAGES_ONLINE_EXPERIMENT/FEMALE_CFD-WF-014-009-HC_ILL9_T119_C2.png,./IMAGES_ONLINE_EXPERIMENT/FEMALE_CFD-WF-033-041-HC_ILL9_T119_C6.png,./IMAGES_ONLINE_EXPERIMENT/FEMALE_CFD-WF-012-012-A_ILL9_T119_C4.png,./IMAGES_ONLINE_EXPERIMENT/FEMALE_CFD-WF-003-004-HO_ILL9_T119_C3.png,./IMAGES_ONLINE_EXPERIMENT/FEMALE_CFD-WF-002-025-F_ILL9_T119_C5.png,./IMAGES_ONLINE_EXPERIMENT/FEMALE_CFD-WF-033-031-A_ILL9_T119.png,,
,,,,,213523,001,2026-03-18_10h48.28.775,RUN_BETA,2026.1.0,MacIntel,59.52380952,222.5482,223.0473,223.0491,228.3474,[0.4877459490740741],[-0.319165943287037],[1],[0],[0],[5.299000000000007],0,53,53,64,1,./IMAGES_ONLINE_EXPERIMENT/FEMALE_CFD-WF-033-002-N_ILL10_T65_C4.png,./IMAGES_ONLINE_EXPERIMENT/FEMALE_CFD-WF-037-016-A_ILL10_T65_C6.png,./IMAGES_ONLINE_EXPERIMENT/FEMALE_CFD-WF-038-023-HO_ILL10_T65_C2.png,./IMAGES_ONLINE_EXPERIMENT/FEMALE_CFD-WF-003-007-HC_ILL10_T65_C1.png,./IMAGES_ONLINE_EXPERIMENT/FEMALE_CFD-WF-001-003-N_ILL10_T65_C3.png,./IMAGES_ONLINE_EXPERIMENT/FEMALE_CFD-WF-011-016-F_ILL10_T65_C5.png,./IMAGES_ONLINE_EXPERIMENT/FEMALE_CFD-WF-037-034-HC_ILL10_T65.png,,
,,,,,213523,001,2026-03-18_10h48.28.775,RUN_BETA,2026.1.0,MacIntel,59.52380952,228.3482,228.8482,228.8501,232.2137,[0.5427191840277777],[0.18843315972222222],[1],[0],[0],[3.3643999999761434],0,54,54,14,1,./IMAGES_ONLINE_EXPERIMENT/FEMALE_CFD-WF-002-033-A_ILL10_T15_C6.png,./IMAGES_ONLINE_EXPERIMENT/FEMALE_CFD-WF-036-040-F_ILL10_T15_C2.png,./IMAGES_ONLINE_EXPERIMENT/FEMALE_CFD-WF-021-006-HC_ILL10_T15_C5.png,./IMAGES_ONLINE_EXPERIMENT/FEMALE_CFD-WF-017-023-A_ILL10_T15_C3.png,./IMAGES_ONLINE_EXPERIMENT/FEMALE_CFD-WF-025-031-F_ILL10_T15_C1.png,./IMAGES_ONLINE_EXPERIMENT/FEMALE_CFD-WF-013-009-HC_ILL10_T15_C4.png,./IMAGES_ONLINE_EXPERIMENT/FEMALE_CFD-WF-002-008-HC_ILL7_T15.png,,
,,,,,213523,001,2026-03-18_10h48.28.775,RUN_BETA,2026.1.0,MacIntel,59.52380952,232.2142,232.714,232.7159,234.6143,[0.5171404803240741],[-0.21110749421296296],[1],[0],[0],[1.8992000000476708],0,55,55,91,1,./IMAGES_ONLINE_EXPERIMENT/MALES_CFD-WM-033-007-HO_ILL10_T92_C6.png,./IMAGES_ONLINE_EXPERIMENT/MALES_CFD-WM-012-015-A_ILL10_T92_C4.png,./IMAGES_ONLINE_EXPERIMENT/MALES_CFD-WM-013-019-F_ILL10_T92_C5.png,./IMAGES_ONLINE_EXPERIMENT/MALES_CFD-WM-022-003-HC_ILL10_T92_C1.png,./IMAGES_ONLINE_EXPERIMENT/MALES_CFD-WM-022-005-HO_ILL10_T92_C2.png,./IMAGES_ONLINE_EXPERIMENT/MALES_CFD-WM-006-022-A_ILL10_T92_C3.png,./IMAGES_ONLINE_EXPERIMENT/MALES_CFD-WM-033-014-A_ILL7_T92.png,,
,,,,,213523,001,2026-03-18_10h48.28.775,RUN_BETA,2026.1.0,MacIntel,59.52380952,234.6151,235.1139,235.1159,237.5469,[0.5389178240740741],[0.2821361400462963],[1],[0],[0],[2.4318000000119184],0,56,56,77,1,./IMAGES_ONLINE_EXPERIMENT/MALES_CFD-WM-036-018-A_ILL10_T78_C3.png,./IMAGES_ONLINE_EXPERIMENT/MALES_CFD-WM-040-025-HC_ILL10_T78_C2.png,./IMAGES_ONLINE_EXPERIMENT/MALES_CFD-WM-009-014-F_ILL10_T78_C6.png,./IMAGES_ONLINE_EXPERIMENT/MALES_CFD-WM-024-019-F_ILL10_T78_C5.png,./IMAGES_ONLINE_EXPERIMENT/MALES_CFD-WM-015-005-HO_ILL10_T78_C4.png,./IMAGES_ONLINE_EXPERIMENT/MALES_CFD-WM-033-025-N_ILL10_T78_C1.png,./IMAGES_ONLINE_EXPERIMENT/MALES_CFD-WM-009-006-HC_ILL10_T78.png,,
,,,,,213523,001,2026-03-18_10h48.28.775,RUN_BETA,2026.1.0,MacIntel,59.52380952,237.5475,238.0474,238.0491,241.5806,[-0.494505931712963],[0.1570601851851852],[1],[0],[0],[3.5321000000238314],0,57,57,96,1,./IMAGES_ONLINE_EXPERIMENT/FEMALE_CFD-WF-013-019-F_ILL9_T97_C2.png,./IMAGES_ONLINE_EXPERIMENT/FEMALE_CFD-WF-026-024-F_ILL9_T97_C6.png,./IMAGES_ONLINE_EXPERIMENT/FEMALE_CFD-WF-021-016-HO_ILL9_T97_C3.png,./IMAGES_ONLINE_EXPERIMENT/FEMALE_CFD-WF-030-033-A_ILL9_T97_C5.png,./IMAGES_ONLINE_EXPERIMENT/FEMALE_CFD-WF-031-009-HC_ILL9_T97_C1.png,./IMAGES_ONLINE_EXPERIMENT/FEMALE_CFD-WF-006-011-F_ILL9_T97_C4.png,./IMAGES_ONLINE_EXPERIMENT/FEMALE_CFD-WF-026-002-N_ILL9_T97.png,,
,,,,,213523,001,2026-03-18_10h48.28.775,RUN_BETA,2026.1.0,MacIntel,59.52380952,241.5814,242.0806,242.0826,244.7805,[0.41847511574074076],[-0.23505135995370371],[1],[0],[0],[2.6986999999880936],0,58,58,8,1,./IMAGES_ONLINE_EXPERIMENT/FEMALE_CFD-WF-027-021-HO_ILL10_T9_C3.png,./IMAGES_ONLINE_EXPERIMENT/FEMALE_CFD-WF-034-061-HC_ILL10_T9_C6.png,./IMAGES_ONLINE_EXPERIMENT/FEMALE_CFD-WF-030-031-HC_ILL10_T9_C4.png,./IMAGES_ONLINE_EXPERIMENT/FEMALE_CFD-WF-033-031-A_ILL10_T9_C5.png,./IMAGES_ONLINE_EXPERIMENT/FEMALE_CFD-WF-019-035-HO_ILL10_T9_C2.png,./IMAGES_ONLINE_EXPERIMENT/FEMALE_CFD-WF-031-009-HC_ILL10_T9_C1.png,./IMAGES_ONLINE_EXPERIMENT/FEMALE_CFD-WF-034-016-A_ILL10_T9.png,,
,,,,,213523,001,2026-03-18_10h48.28.775,RUN_BETA,2026.1.0,MacIntel,59.52380952,244.7813,245.2807,245.2827,247.2472,[0.5234338831018519],[-0.28473307291666666],[1],[0],[0],[1.965199999988073],0,59,59,104,1,./IMAGES_ONLINE_EXPERIMENT/MALES_CFD-WM-009-004-HO_ILL10_T105_C1.png,./IMAGES_ONLINE_EXPERIMENT/MALES_CFD-WM-040-025-HC_ILL10_T105_C5.png,./IMAGES_ONLINE_EXPERIMENT/MALES_CFD-WM-019-009-HO_ILL10_T105_C4.png,./IMAGES_ONLINE_EXPERIMENT/MALES_CFD-WM-036-031-N_ILL10_T105_C6.png,./IMAGES_ONLINE_EXPERIMENT/MALES_CFD-WM-024-010-A_ILL10_T105_C3.png,./IMAGES_ONLINE_EXPERIMENT/MALES_CFD-WM-019-003-N_ILL10_T105_C2.png,./IMAGES_ONLINE_EXPERIMENT/MALES_CFD-WM-036-047-F_ILL10_T105.png,,
,,,,,213523,001,2026-03-18_10h48.28.775,RUN_BETA,2026.1.0,MacIntel,59.52380952,247.2479,247.7473,247.7493,252.8807,[0.5235460069444444],[-0.2848488136574074],[1],[0],[0],[5.132300000011924],0,60,60,26,1,./IMAGES_ONLINE_EXPERIMENT/FEMALE_CFD-WF-020-023-HO_ILL10_T27_C2.png,./IMAGES_ONLINE_EXPERIMENT/FEMALE_CFD-WF-001-003-N_ILL10_T27_C6.png,./IMAGES_ONLINE_EXPERIMENT/FEMALE_CFD-WF-006-003-HC_ILL10_T27_C1.png,./IMAGES_ONLINE_EXPERIMENT/FEMALE_CFD-WF-025-015-A_ILL10_T27_C3.png,./IMAGES_ONLINE_EXPERIMENT/FEMALE_CFD-WF-014-004-HO_ILL10_T27_C4.png,./IMAGES_ONLINE_EXPERIMENT/FEMALE_CFD-WF-008-011-A_ILL10_T27_C5.png,./IMAGES_ONLINE_EXPERIMENT/FEMALE_CFD-WF-001-027-F_ILL9_T27.png,,
,,,,,213523,001,2026-03-18_10h48.28.775,RUN_BETA,2026.1.0,MacIntel,59.52380952,252.8815,253.3806,253.3826,257.3477,[0.46556712962962965],[0.3119357638888889],[1],[0],[0],[3.965899999976159],0,61,61,63,1,./IMAGES_ONLINE_EXPERIMENT/FEMALE_CFD-WF-022-019-HO_ILL10_T64_C3.png,./IMAGES_ONLINE_EXPERIMENT/FEMALE_CFD-WF-039-005-HO_ILL10_T64_C2.png,./IMAGES_ONLINE_EXPERIMENT/FEMALE_CFD-WF-007-029-A_ILL10_T64_C5.png,./IMAGES_ONLINE_EXPERIMENT/FEMALE_CFD-WF-029-018-F_ILL10_T64_C6.png,./IMAGES_ONLINE_EXPERIMENT/FEMALE_CFD-WF-030-026-F_ILL10_T64_C1.png,./IMAGES_ONLINE_EXPERIMENT/FEMALE_CFD-WF-020-007-HC_ILL10_T64_C4.png,./IMAGES_ONLINE_EXPERIMENT/FEMALE_CFD-WF-029-021-HO_ILL9_T64.png,,
,,,,,213523,001,2026-03-18_10h48.28.775,RUN_BETA,2026.1.0,MacIntel,59.52380952,257.3485,257.8472,257.8491,261.4473,[0.5845305266203704],[-0.31142578125],[1],[0],[0],[3.5988999999761973],0,62,62,97,1,./IMAGES_ONLINE_EXPERIMENT/MALES_CFD-WM-018-007-A_ILL7_T98_C5.png,./IMAGES_ONLINE_EXPERIMENT/MALES_CFD-WM-002-008-HC_ILL7_T98_C2.png,./IMAGES_ONLINE_EXPERIMENT/MALES_CFD-WM-025-018-HC_ILL7_T98_C6.png,./IMAGES_ONLINE_EXPERIMENT/MALES_CFD-WM-003-002-N_ILL7_T98_C4.png,./IMAGES_ONLINE_EXPERIMENT/MALES_CFD-WM-034-032-HC_ILL7_T98_C1.png,./IMAGES_ONLINE_EXPERIMENT/MALES_CFD-WM-021-004-HO_ILL7_T98_C3.png,./IMAGES_ONLINE_EXPERIMENT/MALES_CFD-WM-025-002-N_ILL7_T98.png,,
,,,,,213523,001,2026-03-18_10h48.28.775,RUN_BETA,2026.1.0,MacIntel,59.52380952,261.4482,261.9474,261.9493,265.414,[0.49839771412037037],[0.26584563078703705],[1],[0],[0],[3.4653000000118936],0,63,63,13,1,./IMAGES_ONLINE_EXPERIMENT/MALES_CFD-WM-038-005-HO_ILL10_T14_C2.png,./IMAGES_ONLINE_EXPERIMENT/MALES_CFD-WM-020-005-HC_ILL10_T14_C3.png,./IMAGES_ONLINE_EXPERIMENT/MALES_CFD-WM-006-002-N_ILL10_T14_C6.png,./IMAGES_ONLINE_EXPERIMENT/MALES_CFD-WM-023-001-N_ILL10_T14_C1.png,./IMAGES_ONLINE_EXPERIMENT/MALES_CFD-WM-009-004-HO_ILL10_T14_C5.png,./IMAGES_ONLINE_EXPERIMENT/MALES_CFD-WM-031-045-A_ILL10_T14_C4.png,./IMAGES_ONLINE_EXPERIMENT/MALES_CFD-WM-006-022-A_ILL9_T14.png,,
,,,,,213523,001,2026-03-18_10h48.28.775,RUN_BETA,2026.1.0,MacIntel,59.52380952,265.415,265.9141,265.916,270.6804,[0.05986689814814815],[0.2355251736111111],[1],[0],[0],[4.765199999988113],0,64,64,5,1,./IMAGES_ONLINE_EXPERIMENT/MALES_CFD-WM-040-033-F_ILL10_T6_C5.png,./IMAGES_ONLINE_EXPERIMENT/MALES_CFD-WM-003-006-HC_ILL10_T6_C2.png,./IMAGES_ONLINE_EXPERIMENT/MALES_CFD-WM-015-017-A_ILL10_T6_C1.png,./IMAGES_ONLINE_EXPERIMENT/MALES_CFD-WM-037-025-N_ILL10_T6_C4.png,./IMAGES_ONLINE_EXPERIMENT/MALES_CFD-WM-026-004-HC_ILL10_T6_C6.png,./IMAGES_ONLINE_EXPERIMENT/MALES_CFD-WM-001-014-N_ILL10_T6_C3.png,./IMAGES_ONLINE_EXPERIMENT/MALES_CFD-WM-026-019-A_ILL9_T6.png,,
,,,,,213523,001,2026-03-18_10h48.28.775,RUN_BETA,2026.1.0,MacIntel,59.52380952,270.6812,271.1805,271.1828,277.3471,[0.44157262731481484],[0.2025173611111111],[1],[0],[0],[6.16519999998809],0,65,65,32,1,./IMAGES_ONLINE_EXPERIMENT/MALES_CFD-WM-001-011-HO_ILL10_T33_C4.png,./IMAGES_ONLINE_EXPERIMENT/MALES_CFD-WM-009-004-HO_ILL10_T33_C1.png,./IMAGES_ONLINE_EXPERIMENT/MALES_CFD-WM-031-045-A_ILL10_T33_C3.png,./IMAGES_ONLINE_EXPERIMENT/MALES_CFD-WM-018-005-HC_ILL10_T33_C5.png,./IMAGES_ONLINE_EXPERIMENT/MALES_CFD-WM-036-031-N_ILL10_T33_C6.png,./IMAGES_ONLINE_EXPERIMENT/MALES_CFD-WM-038-011-A_ILL10_T33_C2.png,./IMAGES_ONLINE_EXPERIMENT/MALES_CFD-WM-036-018-A_ILL7_T33.png,,
,,,,,213523,001,2026-03-18_10h48.28.775,RUN_BETA,2026.1.0,MacIntel,59.52380952,277.3477,277.8472,277.8492,280.2805,[0.5063187210648148],[-0.2802662037037037],[1],[0],[0],[2.4321000000238087],0,66,66,79,1,./IMAGES_ONLINE_EXPERIMENT/MALES_CFD-WM-019-009-HO_ILL10_T80_C1.png,./IMAGES_ONLINE_EXPERIMENT/MALES_CFD-WM-010-016-A_ILL10_T80_C2.png,./IMAGES_ONLINE_EXPERIMENT/MALES_CFD-WM-040-007-A_ILL10_T80_C6.png,./IMAGES_ONLINE_EXPERIMENT/MALES_CFD-WM-038-005-HO_ILL10_T80_C3.png,./IMAGES_ONLINE_EXPERIMENT/MALES_CFD-WM-023-012-A_ILL10_T80_C4.png,./IMAGES_ONLINE_EXPERIMENT/MALES_CFD-WM-004-005-HC_ILL10_T80_C5.png,./IMAGES_ONLINE_EXPERIMENT/MALES_CFD-WM-040-022-N_ILL10_T80.png,,
,,,,,213523,001,2026-03-18_10h48.28.775,RUN_BETA,2026.1.0,MacIntel,59.52380952,280.2813,280.7796,280.7817,282.5804,[0.5063187210648148],[-0.2802662037037037],[1],[0],[0],[1.7996000000238155],0,67,67,42,1,./IMAGES_ONLINE_EXPERIMENT/MALES_CFD-WM-002-017-A_ILL7_T43_C6.png,./IMAGES_ONLINE_EXPERIMENT/MALES_CFD-WM-041-009-A_ILL7_T43_C2.png,./IMAGES_ONLINE_EXPERIMENT/MALES_CFD-WM-012-026-F_ILL7_T43_C3.png,./IMAGES_ONLINE_EXPERIMENT/MALES_CFD-WM-025-008-A_ILL7_T43_C5.png,./IMAGES_ONLINE_EXPERIMENT/MALES_CFD-WM-004-010-N_ILL7_T43_C4.png,./IMAGES_ONLINE_EXPERIMENT/MALES_CFD-WM-013-019-F_ILL7_T43_C1.png,./IMAGES_ONLINE_EXPERIMENT/MALES_CFD-WM-002-009-N_ILL7_T43.png,,
,,,,,213523,001,2026-03-18_10h48.28.775,RUN_BETA,2026.1.0,MacIntel,59.52380952,282.5812,283.0805,283.0827,285.0138,[0.5063187210648148],[-0.2802662037037037],[1],[0],[0],[1.9319999999999595],0,68,68,49,1,./IMAGES_ONLINE_EXPERIMENT/MALES_CFD-WM-037-025-N_ILL10_T50_C2.png,./IMAGES_ONLINE_EXPERIMENT/MALES_CFD-WM-015-009-HC_ILL10_T50_C3.png,./IMAGES_ONLINE_EXPERIMENT/MALES_CFD-WM-040-033-F_ILL10_T50_C4.png,./IMAGES_ONLINE_EXPERIMENT/MALES_CFD-WM-017-002-N_ILL10_T50_C1.png,./IMAGES_ONLINE_EXPERIMENT/MALES_CFD-WM-013-015-A_ILL10_T50_C5.png,./IMAGES_ONLINE_EXPERIMENT/MALES_CFD-WM-018-005-HC_ILL10_T50_C6.png,./IMAGES_ONLINE_EXPERIMENT/MALES_CFD-WM-018-004-HO_ILL10_T50.png,,
,,,,,213523,001,2026-03-18_10h48.28.775,RUN_BETA,2026.1.0,MacIntel,59.52380952,285.0145,285.5138,285.5158,289.914,[-0.49441550925925926],[0.17508680555555556],[1],[0],[0],[4.39910000002385],0,69,69,88,1,./IMAGES_ONLINE_EXPERIMENT/MALES_CFD-WM-041-009-A_ILL10_T89_C4.png,./IMAGES_ONLINE_EXPERIMENT/MALES_CFD-WM-015-005-HO_ILL10_T89_C1.png,./IMAGES_ONLINE_EXPERIMENT/MALES_CFD-WM-001-014-N_ILL10_T89_C6.png,./IMAGES_ONLINE_EXPERIMENT/MALES_CFD-WM-029-014-A_ILL10_T89_C2.png,./IMAGES_ONLINE_EXPERIMENT/MALES_CFD-WM-037-063-F_ILL10_T89_C3.png,./IMAGES_ONLINE_EXPERIMENT/MALES_CFD-WM-028-003-N_ILL10_T89_C5.png,./IMAGES_ONLINE_EXPERIMENT/MALES_CFD-WM-001-007-HC_ILL10_T89.png,,
,,,,,213523,001,2026-03-18_10h48.28.775,RUN_BETA,2026.1.0,MacIntel,59.52380952,289.9147,290.4137,290.4157,294.6137,[0.03943865740740741],[-0.2695710358796296],[1],[0],[0],[4.198800000011943],0,70,70,80,1,./IMAGES_ONLINE_EXPERIMENT/FEMALE_CFD-WF-035-030-HC_ILL9_T81_C5.png,./IMAGES_ONLINE_EXPERIMENT/FEMALE_CFD-WF-009-015-F_ILL9_T81_C3.png,./IMAGES_ONLINE_EXPERIMENT/FEMALE_CFD-WF-022-007-HC_ILL9_T81_C2.png,./IMAGES_ONLINE_EXPERIMENT/FEMALE_CFD-WF-011-002-N_ILL9_T81_C6.png,./IMAGES_ONLINE_EXPERIMENT/FEMALE_CFD-WF-034-006-N_ILL9_T81_C1.png,./IMAGES_ONLINE_EXPERIMENT/FEMALE_CFD-WF-023-020-HO_ILL9_T81_C4.png,./IMAGES_ONLINE_EXPERIMENT/FEMALE_CFD-WF-011-006-HC_ILL9_T81.png,,
,,,,,213523,001,2026-03-18_10h48.28.775,RUN_BETA,2026.1.0,MacIntel,59.52380952,294.6145,295.1138,295.1171,298.0465,[0.5593641493055556],[-0.2516890914351852],[1],[0],[0],[2.931399999976122],0,71,71,37,1,./IMAGES_ONLINE_EXPERIMENT/MALES_CFD-WM-033-053-F_ILL7_T38_C1.png,./IMAGES_ONLINE_EXPERIMENT/MALES_CFD-WM-017-019-F_ILL7_T38_C5.png,./IMAGES_ONLINE_EXPERIMENT/MALES_CFD-WM-025-008-A_ILL7_T38_C6.png,./IMAGES_ONLINE_EXPERIMENT/MALES_CFD-WM-037-033-HC_ILL7_T38_C4.png,./IMAGES_ONLINE_EXPERIMENT/MALES_CFD-WM-021-001-N_ILL7_T38_C2.png,./IMAGES_ONLINE_EXPERIMENT/MALES_CFD-WM-002-008-HC_ILL7_T38_C3.png,./IMAGES_ONLINE_EXPERIMENT/MALES_CFD-WM-025-019-HO_ILL7_T38.png,,
,,,,,213523,001,2026-03-18_10h48.28.775,RUN_BETA,2026.1.0,MacIntel,59.52380952,298.0474,298.5472,298.5492,300.5137,[0.525904224537037],[-0.23429542824074073],[1],[0],[0],[1.9652999999523217],0,72,72,3,1,./IMAGES_ONLINE_EXPERIMENT/MALES_CFD-WM-026-006-HO_ILL10_T4_C4.png,./IMAGES_ONLINE_EXPERIMENT/MALES_CFD-WM-028-003-N_ILL10_T4_C3.png,./IMAGES_ONLINE_EXPERIMENT/MALES_CFD-WM-009-006-HC_ILL10_T4_C5.png,./IMAGES_ONLINE_EXPERIMENT/MALES_CFD-WM-016-005-HC_ILL10_T4_C2.png,./IMAGES_ONLINE_EXPERIMENT/MALES_CFD-WM-018-004-HO_ILL10_T4_C6.png,./IMAGES_ONLINE_EXPERIMENT/MALES_CFD-WM-013-001-N_ILL10_T4_C1.png,./IMAGES_ONLINE_EXPERIMENT/MALES_CFD-WM-018-007-A_ILL9_T4.png,,
,,,,,213523,001,2026-03-18_10h48.28.775,RUN_BETA,2026.1.0,MacIntel,59.52380952,300.5145,301.0138,301.0158,304.1469,[-0.4771809895833333],[0.20407986111111112],[1],[0],[0],[3.131899999976156],0,73,73,107,1,./IMAGES_ONLINE_EXPERIMENT/MALES_CFD-WM-010-007-HC_ILL9_T108_C3.png,./IMAGES_ONLINE_EXPERIMENT/MALES_CFD-WM-035-028-F_ILL9_T108_C2.png,./IMAGES_ONLINE_EXPERIMENT/MALES_CFD-WM-001-014-N_ILL9_T108_C4.png,./IMAGES_ONLINE_EXPERIMENT/MALES_CFD-WM-039-004-HC_ILL9_T108_C6.png,./IMAGES_ONLINE_EXPERIMENT/MALES_CFD-WM-035-032-N_ILL9_T108_C5.png,./IMAGES_ONLINE_EXPERIMENT/MALES_CFD-WM-017-011-A_ILL9_T108_C1.png,./IMAGES_ONLINE_EXPERIMENT/MALES_CFD-WM-039-010-A_ILL9_T108.png,,
,,,,,213523,001,2026-03-18_10h48.28.775,RUN_BETA,2026.1.0,MacIntel,59.52380952,304.1475,304.6471,304.649,309.047,[0.45902777777777776],[-0.2737087673611111],[1],[0],[0],[4.398599999964233],0,74,74,11,1,./IMAGES_ONLINE_EXPERIMENT/FEMALE_CFD-WF-008-003-HO_ILL7_T12_C6.png,./IMAGES_ONLINE_EXPERIMENT/FEMALE_CFD-WF-016-017-HC_ILL7_T12_C5.png,./IMAGES_ONLINE_EXPERIMENT/FEMALE_CFD-WF-011-011-A_ILL7_T12_C4.png,./IMAGES_ONLINE_EXPERIMENT/FEMALE_CFD-WF-015-006-N_ILL7_T12_C1.png,./IMAGES_ONLINE_EXPERIMENT/FEMALE_CFD-WF-010-006-HO_ILL7_T12_C2.png,./IMAGES_ONLINE_EXPERIMENT/FEMALE_CFD-WF-007-003-HO_ILL7_T12_C3.png,./IMAGES_ONLINE_EXPERIMENT/FEMALE_CFD-WF-008-002-N_ILL7_T12.png,,
,,,,,213523,001,2026-03-18_10h48.28.775,RUN_BETA,2026.1.0,MacIntel,59.52380952,309.0476,309.5471,309.5489,312.4802,[0.5250325520833333],[0.21508608217592592],[1],[0],[0],[2.9321000000238655],0,75,75,55,1,./IMAGES_ONLINE_EXPERIMENT/FEMALE_CFD-WF-033-031-A_ILL9_T56_C1.png,./IMAGES_ONLINE_EXPERIMENT/FEMALE_CFD-WF-020-007-HC_ILL9_T56_C5.png,./IMAGES_ONLINE_EXPERIMENT/FEMALE_CFD-WF-019-035-HO_ILL9_T56_C2.png,./IMAGES_ONLINE_EXPERIMENT/FEMALE_CFD-WF-017-012-F_ILL9_T56_C4.png,./IMAGES_ONLINE_EXPERIMENT/FEMALE_CFD-WF-037-024-F_ILL9_T56_C6.png,./IMAGES_ONLINE_EXPERIMENT/FEMALE_CFD-WF-008-002-N_ILL9_T56_C3.png,./IMAGES_ONLINE_EXPERIMENT/FEMALE_CFD-WF-037-029-N_ILL9_T56.png,,
,,,,,213523,001,2026-03-18_10h48.28.775,RUN_BETA,2026.1.0,MacIntel,59.52380952,312.4808,312.9805,312.9824,318.8137,[0.01997974537037037],[-0.28611472800925924],[1],[0],[0],[5.831999999999994],0,76,76,40,1,./IMAGES_ONLINE_EXPERIMENT/MALES_CFD-WM-036-031-N_ILL10_T41_C3.png,./IMAGES_ONLINE_EXPERIMENT/MALES_CFD-WM-036-034-HO_ILL10_T41_C4.png,./IMAGES_ONLINE_EXPERIMENT/MALES_CFD-WM-038-005-HO_ILL10_T41_C5.png,./IMAGES_ONLINE_EXPERIMENT/MALES_CFD-WM-004-006-HO_ILL10_T41_C6.png,./IMAGES_ONLINE_EXPERIMENT/MALES_CFD-WM-031-038-HC_ILL10_T41_C1.png,./IMAGES_ONLINE_EXPERIMENT/MALES_CFD-WM-026-006-HO_ILL10_T41_C2.png,./IMAGES_ONLINE_EXPERIMENT/MALES_CFD-WM-004-002-F_ILL10_T41.png,,
,,,,,213523,001,2026-03-18_10h48.28.775,RUN_BETA,2026.1.0,MacIntel,59.52380952,318.8143,319.314,319.3159,323.7802,[0.01997974537037037],[-0.28611472800925924],[1],[0],[0],[4.465100000023824],0,77,77,109,1,./IMAGES_ONLINE_EXPERIMENT/MALES_CFD-WM-013-015-A_ILL10_T110_C4.png,./IMAGES_ONLINE_EXPERIMENT/MALES_CFD-WM-006-013-HC_ILL10_T110_C2.png,./IMAGES_ONLINE_EXPERIMENT/MALES_CFD-WM-009-009-A_ILL10_T110_C3.png,./IMAGES_ONLINE_EXPERIMENT/MALES_CFD-WM-029-020-F_ILL10_T110_C1.png,./IMAGES_ONLINE_EXPERIMENT/MALES_CFD-WM-003-002-N_ILL10_T110_C6.png,./IMAGES_ONLINE_EXPERIMENT/MALES_CFD-WM-026-019-A_ILL10_T110_C5.png,./IMAGES_ONLINE_EXPERIMENT/MALES_CFD-WM-003-006-HC_ILL7_T110.png,,
,,,,,213523,001,2026-03-18_10h48.28.775,RUN_BETA,2026.1.0,MacIntel,59.52380952,323.7807,324.2801,324.2812,329.0803,[-0.44287109375],[-0.3309280960648148],[1],[0],[0],[4.799500000000023],0,78,78,4,1,./IMAGES_ONLINE_EXPERIMENT/MALES_CFD-WM-034-027-F_ILL9_T5_C5.png,./IMAGES_ONLINE_EXPERIMENT/MALES_CFD-WM-026-004-HC_ILL9_T5_C6.png,./IMAGES_ONLINE_EXPERIMENT/MALES_CFD-WM-040-007-A_ILL9_T5_C4.png,./IMAGES_ONLINE_EXPERIMENT/MALES_CFD-WM-024-019-F_ILL9_T5_C1.png,./IMAGES_ONLINE_EXPERIMENT/MALES_CFD-WM-037-025-N_ILL9_T5_C3.png,./IMAGES_ONLINE_EXPERIMENT/MALES_CFD-WM-017-005-HO_ILL9_T5_C2.png,./IMAGES_ONLINE_EXPERIMENT/MALES_CFD-WM-026-001-N_ILL9_T5.png,,
,,,,,213523,001,2026-03-18_10h48.28.775,RUN_BETA,2026.1.0,MacIntel,59.52380952,329.081,329.5804,329.5825,332.547,[0.006043836805555556],[-0.24101200810185186],[1],[0],[0],[2.9653000000118936],0,79,79,112,1,./IMAGES_ONLINE_EXPERIMENT/MALES_CFD-WM-004-010-N_ILL10_T113_C1.png,./IMAGES_ONLINE_EXPERIMENT/MALES_CFD-WM-015-009-HC_ILL10_T113_C4.png,./IMAGES_ONLINE_EXPERIMENT/MALES_CFD-WM-032-021-F_ILL10_T113_C6.png,./IMAGES_ONLINE_EXPERIMENT/MALES_CFD-WM-020-008-A_ILL10_T113_C5.png,./IMAGES_ONLINE_EXPERIMENT/MALES_CFD-WM-028-005-HC_ILL10_T113_C3.png,./IMAGES_ONLINE_EXPERIMENT/MALES_CFD-WM-038-011-A_ILL10_T113_C2.png,./IMAGES_ONLINE_EXPERIMENT/MALES_CFD-WM-032-004-HO_ILL9_T113.png,,
,,,,,213523,001,2026-03-18_10h48.28.775,RUN_BETA,2026.1.0,MacIntel,59.52380952,332.5474,333.0469,333.0478,338.7138,[0.49954788773148145],[-0.25366391782407405],[1],[0],[0],[5.666199999988123],0,80,80,87,1,./IMAGES_ONLINE_EXPERIMENT/FEMALE_CFD-WF-018-013-F_ILL10_T88_C3.png,./IMAGES_ONLINE_EXPERIMENT/FEMALE_CFD-WF-017-012-F_ILL10_T88_C6.png,./IMAGES_ONLINE_EXPERIMENT/FEMALE_CFD-WF-037-024-F_ILL10_T88_C4.png,./IMAGES_ONLINE_EXPERIMENT/FEMALE_CFD-WF-035-019-F_ILL10_T88_C5.png,./IMAGES_ONLINE_EXPERIMENT/FEMALE_CFD-WF-011-002-N_ILL10_T88_C1.png,./IMAGES_ONLINE_EXPERIMENT/FEMALE_CFD-WF-034-033-HO_ILL10_T88_C2.png,./IMAGES_ONLINE_EXPERIMENT/FEMALE_CFD-WF-017-015-HO_ILL10_T88.png,,
,,,,,213523,001,2026-03-18_10h48.28.775,RUN_BETA,2026.1.0,MacIntel,59.52380952,338.7144,339.2138,339.2157,341.7801,[0.5343460648148148],[0.19720052083333334],[1],[0],[0],[2.5651999999880672],0,81,81,29,1,./IMAGES_ONLINE_EXPERIMENT/MALES_CFD-WM-025-019-HO_ILL10_T30_C3.png,./IMAGES_ONLINE_EXPERIMENT/MALES_CFD-WM-036-034-HO_ILL10_T30_C1.png,./IMAGES_ONLINE_EXPERIMENT/MALES_CFD-WM-020-008-A_ILL10_T30_C4.png,./IMAGES_ONLINE_EXPERIMENT/MALES_CFD-WM-025-002-N_ILL10_T30_C5.png,./IMAGES_ONLINE_EXPERIMENT/MALES_CFD-WM-035-018-A_ILL10_T30_C6.png,./IMAGES_ONLINE_EXPERIMENT/MALES_CFD-WM-037-025-N_ILL10_T30_C2.png,./IMAGES_ONLINE_EXPERIMENT/MALES_CFD-WM-035-033-HO_ILL7_T30.png,,
,,,,,213523,001,2026-03-18_10h48.28.775,RUN_BETA,2026.1.0,MacIntel,59.52380952,341.7806,342.2803,342.2814,346.246,[0.0014214409722222222],[-0.23424840856481483],[1],[0],[0],[3.9649000000357546],0,82,82,98,1,./IMAGES_ONLINE_EXPERIMENT/MALES_CFD-WM-028-019-F_ILL10_T99_C2.png,./IMAGES_ONLINE_EXPERIMENT/MALES_CFD-WM-001-007-HC_ILL10_T99_C4.png,./IMAGES_ONLINE_EXPERIMENT/MALES_CFD-WM-004-011-A_ILL10_T99_C6.png,./IMAGES_ONLINE_EXPERIMENT/MALES_CFD-WM-035-032-N_ILL10_T99_C1.png,./IMAGES_ONLINE_EXPERIMENT/MALES_CFD-WM-039-008-HO_ILL10_T99_C5.png,./IMAGES_ONLINE_EXPERIMENT/MALES_CFD-WM-036-031-N_ILL10_T99_C3.png,./IMAGES_ONLINE_EXPERIMENT/MALES_CFD-WM-004-010-N_ILL9_T99.png,,
,,,,,213523,001,2026-03-18_10h48.28.775,RUN_BETA,2026.1.0,MacIntel,59.52380952,346.2466,346.7471,346.7489,349.0802,[0.0013057002314814815],[-0.23424840856481483],[1],[0],[0],[2.3319999999999936],0,83,83,22,1,./IMAGES_ONLINE_EXPERIMENT/FEMALE_CFD-WF-015-006-N_ILL7_T23_C1.png,./IMAGES_ONLINE_EXPERIMENT/FEMALE_CFD-WF-012-007-HO_ILL7_T23_C5.png,./IMAGES_ONLINE_EXPERIMENT/FEMALE_CFD-WF-028-023-N_ILL7_T23_C3.png,./IMAGES_ONLINE_EXPERIMENT/FEMALE_CFD-WF-030-003-HO_ILL7_T23_C2.png,./IMAGES_ONLINE_EXPERIMENT/FEMALE_CFD-WF-023-013-A_ILL7_T23_C6.png,./IMAGES_ONLINE_EXPERIMENT/FEMALE_CFD-WF-022-017-N_ILL7_T23_C4.png,./IMAGES_ONLINE_EXPERIMENT/FEMALE_CFD-WF-023-020-HO_ILL7_T23.png,,
,,,,,213523,001,2026-03-18_10h48.28.775,RUN_BETA,2026.1.0,MacIntel,59.52380952,349.0807,349.5806,349.5824,356.8472,[0.0013057002314814815],[-0.23424840856481483],[1],[0],[0],[7.2654999999999745],0,84,84,94,1,./IMAGES_ONLINE_EXPERIMENT/MALES_CFD-WM-032-008-HC_ILL10_T95_C2.png,./IMAGES_ONLINE_EXPERIMENT/MALES_CFD-WM-034-027-F_ILL10_T95_C4.png,./IMAGES_ONLINE_EXPERIMENT/MALES_CFD-WM-034-032-HC_ILL10_T95_C1.png,./IMAGES_ONLINE_EXPERIMENT/MALES_CFD-WM-015-005-HO_ILL10_T95_C3.png,./IMAGES_ONLINE_EXPERIMENT/MALES_CFD-WM-004-006-HO_ILL10_T95_C6.png,./IMAGES_ONLINE_EXPERIMENT/MALES_CFD-WM-009-006-HC_ILL10_T95_C5.png,./IMAGES_ONLINE_EXPERIMENT/MALES_CFD-WM-004-010-N_ILL10_T95.png,,
,,,,,213523,001,2026-03-18_10h48.28.775,RUN_BETA,2026.1.0,MacIntel,59.52380952,356.8479,357.3471,357.349,360.2138,[0.03441840277777778],[0.2156394675925926],[1],[0],[0],[2.8654999999999973],0,85,85,108,1,./IMAGES_ONLINE_EXPERIMENT/FEMALE_CFD-WF-033-041-HC_ILL7_T109_C6.png,./IMAGES_ONLINE_EXPERIMENT/FEMALE_CFD-WF-022-014-F_ILL7_T109_C4.png,./IMAGES_ONLINE_EXPERIMENT/FEMALE_CFD-WF-017-015-HO_ILL7_T109_C2.png,./IMAGES_ONLINE_EXPERIMENT/FEMALE_CFD-WF-003-007-HC_ILL7_T109_C3.png,./IMAGES_ONLINE_EXPERIMENT/FEMALE_CFD-WF-021-016-HO_ILL7_T109_C5.png,./IMAGES_ONLINE_EXPERIMENT/FEMALE_CFD-WF-031-027-N_ILL7_T109_C1.png,./IMAGES_ONLINE_EXPERIMENT/FEMALE_CFD-WF-033-035-F_ILL7_T109.png,,
,,,,,213523,001,2026-03-18_10h48.28.775,RUN_BETA,2026.1.0,MacIntel,59.52380952,360.2145,360.7138,360.7158,363.7138,[0.0055302372685185185],[-0.17815755208333334],[1],[0],[0],[2.9988999999761745],0,86,86,113,1,./IMAGES_ONLINE_EXPERIMENT/MALES_CFD-WM-012-001-N_ILL9_T114_C3.png,./IMAGES_ONLINE_EXPERIMENT/MALES_CFD-WM-009-002-N_ILL9_T114_C6.png,./IMAGES_ONLINE_EXPERIMENT/MALES_CFD-WM-031-038-HC_ILL9_T114_C4.png,./IMAGES_ONLINE_EXPERIMENT/MALES_CFD-WM-039-010-A_ILL9_T114_C1.png,./IMAGES_ONLINE_EXPERIMENT/MALES_CFD-WM-040-007-A_ILL9_T114_C2.png,./IMAGES_ONLINE_EXPERIMENT/MALES_CFD-WM-018-002-N_ILL9_T114_C5.png,./IMAGES_ONLINE_EXPERIMENT/MALES_CFD-WM-009-004-HO_ILL9_T114.png,,
,,,,,213523,001,2026-03-18_10h48.28.775,RUN_BETA,2026.1.0,MacIntel,59.52380952,363.7146,364.2138,364.2155,366.4465,[0.6301359953703703],[-0.18747829861111112],[1],[0],[0],[2.231300000011913],0,87,87,30,1,./IMAGES_ONLINE_EXPERIMENT/MALES_CFD-WM-006-013-HC_ILL9_T31_C4.png,./IMAGES_ONLINE_EXPERIMENT/MALES_CFD-WM-028-019-F_ILL9_T31_C1.png,./IMAGES_ONLINE_EXPERIMENT/MALES_CFD-WM-011-002-N_ILL9_T31_C5.png,./IMAGES_ONLINE_EXPERIMENT/MALES_CFD-WM-029-009-HC_ILL9_T31_C3.png,./IMAGES_ONLINE_EXPERIMENT/MALES_CFD-WM-039-004-HC_ILL9_T31_C2.png,./IMAGES_ONLINE_EXPERIMENT/MALES_CFD-WM-026-004-HC_ILL9_T31_C6.png,./IMAGES_ONLINE_EXPERIMENT/MALES_CFD-WM-026-001-N_ILL9_T31.png,,
,,,,,213523,001,2026-03-18_10h48.28.775,RUN_BETA,2026.1.0,MacIntel,59.52380952,366.4473,366.947,366.9489,372.7472,[0.45601128472222224],[0.22938368055555555],[1],[0],[0],[5.799000000000035],0,88,88,56,1,./IMAGES_ONLINE_EXPERIMENT/FEMALE_CFD-WF-013-009-HC_ILL10_T57_C1.png,./IMAGES_ONLINE_EXPERIMENT/FEMALE_CFD-WF-034-016-A_ILL10_T57_C4.png,./IMAGES_ONLINE_EXPERIMENT/FEMALE_CFD-WF-026-002-N_ILL10_T57_C6.png,./IMAGES_ONLINE_EXPERIMENT/FEMALE_CFD-WF-008-011-A_ILL10_T57_C2.png,./IMAGES_ONLINE_EXPERIMENT/FEMALE_CFD-WF-001-003-N_ILL10_T57_C3.png,./IMAGES_ONLINE_EXPERIMENT/FEMALE_CFD-WF-016-003-HO_ILL10_T57_C5.png,./IMAGES_ONLINE_EXPERIMENT/FEMALE_CFD-WF-026-017-HO_ILL9_T57.png,,
,,,,,213523,001,2026-03-18_10h48.28.775,RUN_BETA,2026.1.0,MacIntel,59.52380952,372.7481,373.247,373.2488,376.4804,[0.02123119212962963],[-0.24954065393518518],[1],[0],[0],[3.2323000000119464],0,89,89,90,1,./IMAGES_ONLINE_EXPERIMENT/FEMALE_CFD-WF-008-005-HC_ILL9_T91_C2.png,./IMAGES_ONLINE_EXPERIMENT/FEMALE_CFD-WF-025-023-HC_ILL9_T91_C1.png,./IMAGES_ONLINE_EXPERIMENT/FEMALE_CFD-WF-013-006-HO_ILL9_T91_C5.png,./IMAGES_ONLINE_EXPERIMENT/FEMALE_CFD-WF-037-024-F_ILL9_T91_C4.png,./IMAGES_ONLINE_EXPERIMENT/FEMALE_CFD-WF-010-004-N_ILL9_T91_C3.png,./IMAGES_ONLINE_EXPERIMENT/FEMALE_CFD-WF-002-004-N_ILL9_T91_C6.png,./IMAGES_ONLINE_EXPERIMENT/FEMALE_CFD-WF-002-025-F_ILL9_T91.png,,
,,,,,213523,001,2026-03-18_10h48.28.775,RUN_BETA,2026.1.0,MacIntel,59.52380952,376.4812,376.9803,376.9822,379.6804,[-0.05489366319444444],[0.18364076967592594],[1],[0],[0],[2.698900000035792],0,90,90,106,1,./IMAGES_ONLINE_EXPERIMENT/MALES_CFD-WM-040-007-A_ILL10_T107_C6.png,./IMAGES_ONLINE_EXPERIMENT/MALES_CFD-WM-032-021-F_ILL10_T107_C3.png,./IMAGES_ONLINE_EXPERIMENT/MALES_CFD-WM-014-024-F_ILL10_T107_C1.png,./IMAGES_ONLINE_EXPERIMENT/MALES_CFD-WM-035-018-A_ILL10_T107_C2.png,./IMAGES_ONLINE_EXPERIMENT/MALES_CFD-WM-038-007-HC_ILL10_T107_C5.png,./IMAGES_ONLINE_EXPERIMENT/MALES_CFD-WM-039-010-A_ILL10_T107_C4.png,./IMAGES_ONLINE_EXPERIMENT/MALES_CFD-WM-040-022-N_ILL7_T107.png,,
,,,,,213523,001,2026-03-18_10h48.28.775,RUN_BETA,2026.1.0,MacIntel,59.52380952,379.6811,380.1804,380.1825,384.2805,[-0.45138527199074074],[-0.18246527777777777],[1],[0],[0],[4.09880000001192],0,91,91,68,1,./IMAGES_ONLINE_EXPERIMENT/MALES_CFD-WM-016-005-HC_ILL7_T69_C1.png,./IMAGES_ONLINE_EXPERIMENT/MALES_CFD-WM-016-001-N_ILL7_T69_C2.png,./IMAGES_ONLINE_EXPERIMENT/MALES_CFD-WM-017-011-A_ILL7_T69_C4.png,./IMAGES_ONLINE_EXPERIMENT/MALES_CFD-WM-012-005-HO_ILL7_T69_C6.png,./IMAGES_ONLINE_EXPERIMENT/MALES_CFD-WM-020-012-F_ILL7_T69_C3.png,./IMAGES_ONLINE_EXPERIMENT/MALES_CFD-WM-032-021-F_ILL7_T69_C5.png,./IMAGES_ONLINE_EXPERIMENT/MALES_CFD-WM-012-001-N_ILL7_T69.png,,
,,,,,213523,001,2026-03-18_10h48.28.775,RUN_BETA,2026.1.0,MacIntel,59.52380952,384.2813,384.7805,384.7824,386.4798,[0.5029694733796296],[-0.2154224537037037],[1],[0],[0],[1.6982000000476773],0,92,92,62,1,./IMAGES_ONLINE_EXPERIMENT/MALES_CFD-WM-018-002-N_ILL10_T63_C5.png,./IMAGES_ONLINE_EXPERIMENT/MALES_CFD-WM-002-017-A_ILL10_T63_C1.png,./IMAGES_ONLINE_EXPERIMENT/MALES_CFD-WM-009-009-A_ILL10_T63_C3.png,./IMAGES_ONLINE_EXPERIMENT/MALES_CFD-WM-036-034-HO_ILL10_T63_C2.png,./IMAGES_ONLINE_EXPERIMENT/MALES_CFD-WM-023-001-N_ILL10_T63_C4.png,./IMAGES_ONLINE_EXPERIMENT/MALES_CFD-WM-025-018-HC_ILL10_T63_C6.png,./IMAGES_ONLINE_EXPERIMENT/MALES_CFD-WM-025-002-N_ILL10_T63.png,,
,,,,,213523,001,2026-03-18_10h48.28.775,RUN_BETA,2026.1.0,MacIntel,59.52380952,386.4804,386.9805,386.9837,389.2137,[-0.015433304398148148],[-0.25252821180555557],[1],[0],[0],[2.232100000023877],0,93,93,54,1,./IMAGES_ONLINE_EXPERIMENT/FEMALE_CFD-WF-039-025-N_ILL10_T55_C5.png,./IMAGES_ONLINE_EXPERIMENT/FEMALE_CFD-WF-006-003-HC_ILL10_T55_C4.png,./IMAGES_ONLINE_EXPERIMENT/FEMALE_CFD-WF-014-004-HO_ILL10_T55_C6.png,./IMAGES_ONLINE_EXPERIMENT/FEMALE_CFD-WF-001-003-N_ILL10_T55_C2.png,./IMAGES_ONLINE_EXPERIMENT/FEMALE_CFD-WF-005-013-HO_ILL10_T55_C1.png,./IMAGES_ONLINE_EXPERIMENT/FEMALE_CFD-WF-020-012-A_ILL10_T55_C3.png,./IMAGES_ONLINE_EXPERIMENT/FEMALE_CFD-WF-014-023-F_ILL10_T55.png,,
,,,,,213523,001,2026-03-18_10h48.28.775,RUN_BETA,2026.1.0,MacIntel,59.52380952,389.2145,389.7138,389.7157,392.5471,[0.47004846643518516],[0.24002097800925926],[1],[0],[0],[2.8321000000238428],0,94,94,43,1,./IMAGES_ONLINE_EXPERIMENT/FEMALE_CFD-WF-034-061-HC_ILL7_T44_C5.png,./IMAGES_ONLINE_EXPERIMENT/FEMALE_CFD-WF-010-004-N_ILL7_T44_C3.png,./IMAGES_ONLINE_EXPERIMENT/FEMALE_CFD-WF-003-025-F_ILL7_T44_C2.png,./IMAGES_ONLINE_EXPERIMENT/FEMALE_CFD-WF-037-034-HC_ILL7_T44_C1.png,./IMAGES_ONLINE_EXPERIMENT/FEMALE_CFD-WF-014-012-A_ILL7_T44_C6.png,./IMAGES_ONLINE_EXPERIMENT/FEMALE_CFD-WF-022-017-N_ILL7_T44_C4.png,./IMAGES_ONLINE_EXPERIMENT/FEMALE_CFD-WF-014-004-HO_ILL7_T44.png,,
,,,,,213523,001,2026-03-18_10h48.28.775,RUN_BETA,2026.1.0,MacIntel,59.52380952,392.5478,393.047,393.0489,396.5135,[0.53837890625],[-0.19094328703703703],[1],[0],[0],[3.465400000035743],0,95,95,23,1,./IMAGES_ONLINE_EXPERIMENT/FEMALE_CFD-WF-011-011-A_ILL7_T24_C3.png,./IMAGES_ONLINE_EXPERIMENT/FEMALE_CFD-WF-018-019-HC_ILL7_T24_C5.png,./IMAGES_ONLINE_EXPERIMENT/FEMALE_CFD-WF-027-015-F_ILL7_T24_C2.png,./IMAGES_ONLINE_EXPERIMENT/FEMALE_CFD-WF-039-032-A_ILL7_T24_C4.png,./IMAGES_ONLINE_EXPERIMENT/FEMALE_CFD-WF-009-001-N_ILL7_T24_C6.png,./IMAGES_ONLINE_EXPERIMENT/FEMALE_CFD-WF-005-010-N_ILL7_T24_C1.png,./IMAGES_ONLINE_EXPERIMENT/FEMALE_CFD-WF-009-006-HC_ILL7_T24.png,,
,,,,,213523,001,2026-03-18_10h48.28.775,RUN_BETA,2026.1.0,MacIntel,59.52380952,396.5142,397.0136,397.0148,402.7803,[0.5377025462962963],[0.18872251157407408],[1],[0],[0],[5.765800000011893],0,96,96,60,1,./IMAGES_ONLINE_EXPERIMENT/FEMALE_CFD-WF-014-023-F_ILL10_T61_C2.png,./IMAGES_ONLINE_EXPERIMENT/FEMALE_CFD-WF-019-032-HC_ILL10_T61_C5.png,./IMAGES_ONLINE_EXPERIMENT/FEMALE_CFD-WF-013-019-F_ILL10_T61_C6.png,./IMAGES_ONLINE_EXPERIMENT/FEMALE_CFD-WF-020-012-A_ILL10_T61_C1.png,./IMAGES_ONLINE_EXPERIMENT/FEMALE_CFD-WF-021-006-HC_ILL10_T61_C3.png,./IMAGES_ONLINE_EXPERIMENT/FEMALE_CFD-WF-012-012-A_ILL10_T61_C4.png,./IMAGES_ONLINE_EXPERIMENT/FEMALE_CFD-WF-013-015-A_ILL10_T61.png,,
,,,,,213523,001,2026-03-18_10h48.28.775,RUN_BETA,2026.1.0,MacIntel,59.52380952,402.781,403.2803,403.2824,405.7471,[0.5336009837962963],[-0.24777199074074074],[1],[0],[0],[2.4655999999642404],0,97,97,33,1,./IMAGES_ONLINE_EXPERIMENT/FEMALE_CFD-WF-021-016-HO_ILL10_T34_C5.png,./IMAGES_ONLINE_EXPERIMENT/FEMALE_CFD-WF-001-016-A_ILL10_T34_C3.png,./IMAGES_ONLINE_EXPERIMENT/FEMALE_CFD-WF-027-007-HC_ILL10_T34_C2.png,./IMAGES_ONLINE_EXPERIMENT/FEMALE_CFD-WF-035-024-N_ILL10_T34_C1.png,./IMAGES_ONLINE_EXPERIMENT/FEMALE_CFD-WF-022-014-F_ILL10_T34_C6.png,./IMAGES_ONLINE_EXPERIMENT/FEMALE_CFD-WF-012-002-N_ILL10_T34_C4.png,./IMAGES_ONLINE_EXPERIMENT/FEMALE_CFD-WF-022-019-HO_ILL9_T34.png,,
,,,,,213523,001,2026-03-18_10h48.28.775,RUN_BETA,2026.1.0,MacIntel,59.52380952,405.7479,406.247,406.2491,412.0458,[-0.5188042534722223],[0.28719618055555557],[1],[0],[0],[5.797600000023863],0,98,98,78,1,./IMAGES_ONLINE_EXPERIMENT/MALES_CFD-WM-014-002-N_ILL7_T79_C5.png,./IMAGES_ONLINE_EXPERIMENT/MALES_CFD-WM-004-010-N_ILL7_T79_C4.png,./IMAGES_ONLINE_EXPERIMENT/MALES_CFD-WM-024-019-F_ILL7_T79_C1.png,./IMAGES_ONLINE_EXPERIMENT/MALES_CFD-WM-006-039-F_ILL7_T79_C3.png,./IMAGES_ONLINE_EXPERIMENT/MALES_CFD-WM-023-007-HC_ILL7_T79_C6.png,./IMAGES_ONLINE_EXPERIMENT/MALES_CFD-WM-020-008-A_ILL7_T79_C2.png,./IMAGES_ONLINE_EXPERIMENT/MALES_CFD-WM-023-001-N_ILL7_T79.png,,
,,,,,213523,001,2026-03-18_10h48.28.775,RUN_BETA,2026.1.0,MacIntel,59.52380952,412.0463,412.547,412.5488,414.4803,[0.4728370949074074],[-0.26554542824074073],[1],[0],[0],[1.9322000000476578],0,99,99,114,1,./IMAGES_ONLINE_EXPERIMENT/FEMALE_CFD-WF-023-003-N_ILL10_T115_C5.png,./IMAGES_ONLINE_EXPERIMENT/FEMALE_CFD-WF-017-003-N_ILL10_T115_C6.png,./IMAGES_ONLINE_EXPERIMENT/FEMALE_CFD-WF-025-023-HC_ILL10_T115_C2.png,./IMAGES_ONLINE_EXPERIMENT/FEMALE_CFD-WF-014-004-HO_ILL10_T115_C1.png,./IMAGES_ONLINE_EXPERIMENT/FEMALE_CFD-WF-025-031-F_ILL10_T115_C4.png,./IMAGES_ONLINE_EXPERIMENT/FEMALE_CFD-WF-007-003-HO_ILL10_T115_C3.png,./IMAGES_ONLINE_EXPERIMENT/FEMALE_CFD-WF-017-015-HO_ILL10_T115.png,,
,,,,,213523,001,2026-03-18_10h48.28.775,RUN_BETA,2026.1.0,MacIntel,59.52380952,414.4811,414.9802,414.9815,417.6137,[0.5055519386574074],[-0.23722511574074073],[1],[0],[0],[2.6325999999642136],0,100,100,17,1,./IMAGES_ONLINE_EXPERIMENT/MALES_CFD-WM-033-007-HO_ILL7_T18_C6.png,./IMAGES_ONLINE_EXPERIMENT/MALES_CFD-WM-031-004-HO_ILL7_T18_C4.png,./IMAGES_ONLINE_EXPERIMENT/MALES_CFD-WM-004-010-N_ILL7_T18_C5.png,./IMAGES_ONLINE_EXPERIMENT/MALES_CFD-WM-037-060-A_ILL7_T18_C2.png,./IMAGES_ONLINE_EXPERIMENT/MALES_CFD-WM-036-034-HO_ILL7_T18_C3.png,./IMAGES_ONLINE_EXPERIMENT/MALES_CFD-WM-017-003-HC_ILL7_T18_C1.png,./IMAGES_ONLINE_EXPERIMENT/MALES_CFD-WM-033-053-F_ILL7_T18.png,,
,,,,,213523,001,2026-03-18_10h48.28.775,RUN_BETA,2026.1.0,MacIntel,59.52380952,417.6143,418.1137,418.1154,424.0801,[0.008213975694444445],[-0.1340060763888889],[1],[0],[0],[5.965399999976171],0,101,101,36,1,./IMAGES_ONLINE_EXPERIMENT/FEMALE_CFD-WF-006-003-HC_ILL10_T37_C6.png,./IMAGES_ONLINE_EXPERIMENT/FEMALE_CFD-WF-005-027-F_ILL10_T37_C5.png,./IMAGES_ONLINE_EXPERIMENT/FEMALE_CFD-WF-001-009-HO_ILL10_T37_C2.png,./IMAGES_ONLINE_EXPERIMENT/FEMALE_CFD-WF-026-002-N_ILL10_T37_C1.png,./IMAGES_ONLINE_EXPERIMENT/FEMALE_CFD-WF-029-023-HC_ILL10_T37_C4.png,./IMAGES_ONLINE_EXPERIMENT/FEMALE_CFD-WF-023-020-HO_ILL10_T37_C3.png,./IMAGES_ONLINE_EXPERIMENT/FEMALE_CFD-WF-006-019-A_ILL7_T37.png,,
,,,,,213523,001,2026-03-18_10h48.28.775,RUN_BETA,2026.1.0,MacIntel,59.52380952,424.0806,424.5804,424.5822,428.4469,[-0.437109375],[-0.25276331018518516],[1],[0],[0],[3.86540000003572],0,102,102,67,1,./IMAGES_ONLINE_EXPERIMENT/FEMALE_CFD-WF-001-016-A_ILL10_T68_C4.png,./IMAGES_ONLINE_EXPERIMENT/FEMALE_CFD-WF-006-019-A_ILL10_T68_C2.png,./IMAGES_ONLINE_EXPERIMENT/FEMALE_CFD-WF-038-023-HO_ILL10_T68_C1.png,./IMAGES_ONLINE_EXPERIMENT/FEMALE_CFD-WF-008-003-HO_ILL10_T68_C5.png,./IMAGES_ONLINE_EXPERIMENT/FEMALE_CFD-WF-020-012-A_ILL10_T68_C6.png,./IMAGES_ONLINE_EXPERIMENT/FEMALE_CFD-WF-030-031-HC_ILL10_T68_C3.png,./IMAGES_ONLINE_EXPERIMENT/FEMALE_CFD-WF-020-002-N_ILL10_T68.png,,
,,,,,213523,001,2026-03-18_10h48.28.775,RUN_BETA,2026.1.0,MacIntel,59.52380952,428.4476,428.9469,428.9491,431.1804,[0.49180410879629627],[-0.26457609953703703],[1],[0],[0],[2.2320000000000277],0,103,103,76,1,./IMAGES_ONLINE_EXPERIMENT/MALES_CFD-WM-019-003-N_ILL10_T77_C5.png,./IMAGES_ONLINE_EXPERIMENT/MALES_CFD-WM-016-005-HC_ILL10_T77_C6.png,./IMAGES_ONLINE_EXPERIMENT/MALES_CFD-WM-003-008-A_ILL10_T77_C1.png,./IMAGES_ONLINE_EXPERIMENT/MALES_CFD-WM-029-029-HO_ILL10_T77_C2.png,./IMAGES_ONLINE_EXPERIMENT/MALES_CFD-WM-033-006-HC_ILL10_T77_C4.png,./IMAGES_ONLINE_EXPERIMENT/MALES_CFD-WM-012-005-HO_ILL10_T77_C3.png,./IMAGES_ONLINE_EXPERIMENT/MALES_CFD-WM-016-001-N_ILL9_T77.png,,
,,,,,213523,001,2026-03-18_10h48.28.775,RUN_BETA,2026.1.0,MacIntel,59.52380952,431.1811,431.6803,431.6821,433.4467,[-0.03202039930555556],[-0.29390914351851855],[1],[0],[0],[1.7653999999761822],0,104,104,57,1,./IMAGES_ONLINE_EXPERIMENT/FEMALE_CFD-WF-035-019-F_ILL10_T58_C3.png,./IMAGES_ONLINE_EXPERIMENT/FEMALE_CFD-WF-029-002-N_ILL10_T58_C6.png,./IMAGES_ONLINE_EXPERIMENT/FEMALE_CFD-WF-020-002-N_ILL10_T58_C1.png,./IMAGES_ONLINE_EXPERIMENT/FEMALE_CFD-WF-011-003-HO_ILL10_T58_C4.png,./IMAGES_ONLINE_EXPERIMENT/FEMALE_CFD-WF-035-030-HC_ILL10_T58_C5.png,./IMAGES_ONLINE_EXPERIMENT/FEMALE_CFD-WF-019-035-HO_ILL10_T58_C2.png,./IMAGES_ONLINE_EXPERIMENT/FEMALE_CFD-WF-029-021-HO_ILL9_T58.png,,
,,,,,213523,001,2026-03-18_10h48.28.775,RUN_BETA,2026.1.0,MacIntel,59.52380952,433.4475,433.9468,433.9482,437.2455,[-0.5109664351851851],[0.23154658564814815],[1],[0],[0],[3.2978999999761527],0,105,105,81,1,./IMAGES_ONLINE_EXPERIMENT/FEMALE_CFD-WF-018-017-N_ILL7_T82_C6.png,./IMAGES_ONLINE_EXPERIMENT/FEMALE_CFD-WF-033-002-N_ILL7_T82_C2.png,./IMAGES_ONLINE_EXPERIMENT/FEMALE_CFD-WF-001-016-A_ILL7_T82_C3.png,./IMAGES_ONLINE_EXPERIMENT/FEMALE_CFD-WF-020-027-F_ILL7_T82_C5.png,./IMAGES_ONLINE_EXPERIMENT/FEMALE_CFD-WF-037-016-A_ILL7_T82_C4.png,./IMAGES_ONLINE_EXPERIMENT/FEMALE_CFD-WF-025-031-F_ILL7_T82_C1.png,./IMAGES_ONLINE_EXPERIMENT/FEMALE_CFD-WF-018-013-F_ILL7_T82.png,,
,,,,,213523,001,2026-03-18_10h48.28.775,RUN_BETA,2026.1.0,MacIntel,59.52380952,437.2459,437.7471,437.7492,442.647,[0.018051938657407406],[-0.22169053819444445],[1],[0],[0],[4.898800000011931],0,106,106,31,1,./IMAGES_ONLINE_EXPERIMENT/FEMALE_CFD-WF-009-006-HC_ILL10_T32_C4.png,./IMAGES_ONLINE_EXPERIMENT/FEMALE_CFD-WF-015-014-A_ILL10_T32_C6.png,./IMAGES_ONLINE_EXPERIMENT/FEMALE_CFD-WF-027-021-HO_ILL10_T32_C2.png,./IMAGES_ONLINE_EXPERIMENT/FEMALE_CFD-WF-035-027-HO_ILL10_T32_C5.png,./IMAGES_ONLINE_EXPERIMENT/FEMALE_CFD-WF-012-017-F_ILL10_T32_C1.png,./IMAGES_ONLINE_EXPERIMENT/FEMALE_CFD-WF-039-025-N_ILL10_T32_C3.png,./IMAGES_ONLINE_EXPERIMENT/FEMALE_CFD-WF-015-006-N_ILL10_T32.png,,
,,,,,213523,001,2026-03-18_10h48.28.775,RUN_BETA,2026.1.0,MacIntel,59.52380952,442.6478,443.147,443.1487,446.0136,[-0.47870008680555554],[0.2296513310185185],[1],[0],[0],[2.8654999999999973],0,107,107,73,1,./IMAGES_ONLINE_EXPERIMENT/FEMALE_CFD-WF-010-008-HC_ILL10_T74_C1.png,./IMAGES_ONLINE_EXPERIMENT/FEMALE_CFD-WF-017-015-HO_ILL10_T74_C6.png,./IMAGES_ONLINE_EXPERIMENT/FEMALE_CFD-WF-005-013-HO_ILL10_T74_C5.png,./IMAGES_ONLINE_EXPERIMENT/FEMALE_CFD-WF-005-022-A_ILL10_T74_C4.png,./IMAGES_ONLINE_EXPERIMENT/FEMALE_CFD-WF-009-010-A_ILL10_T74_C3.png,./IMAGES_ONLINE_EXPERIMENT/FEMALE_CFD-WF-026-024-F_ILL10_T74_C2.png,./IMAGES_ONLINE_EXPERIMENT/FEMALE_CFD-WF-017-016-HC_ILL9_T74.png,,
,,,,,213523,001,2026-03-18_10h48.28.775,RUN_BETA,2026.1.0,MacIntel,59.52380952,446.0144,446.5136,446.5155,449.5801,[0.5244683159722222],[-0.2985423900462963],[1],[0],[0],[3.0653000000119164],0,108,108,75,1,./IMAGES_ONLINE_EXPERIMENT/MALES_CFD-WM-016-008-A_ILL10_T76_C3.png,./IMAGES_ONLINE_EXPERIMENT/MALES_CFD-WM-017-003-HC_ILL10_T76_C4.png,./IMAGES_ONLINE_EXPERIMENT/MALES_CFD-WM-022-012-F_ILL10_T76_C2.png,./IMAGES_ONLINE_EXPERIMENT/MALES_CFD-WM-035-028-F_ILL10_T76_C6.png,./IMAGES_ONLINE_EXPERIMENT/MALES_CFD-WM-009-004-HO_ILL10_T76_C1.png,./IMAGES_ONLINE_EXPERIMENT/MALES_CFD-WM-018-004-HO_ILL10_T76_C5.png,./IMAGES_ONLINE_EXPERIMENT/MALES_CFD-WM-035-036-HC_ILL10_T76.png,,
,,,,,213523,001,2026-03-18_10h48.28.775,RUN_BETA,2026.1.0,MacIntel,59.52380952,449.5805,450.0794,450.0813,453.2801,[0.4739583333333333],[0.2989836516203704],[1],[0],[0],[3.1995000000000005],0,109,109,115,1,./IMAGES_ONLINE_EXPERIMENT/MALES_CFD-WM-006-002-N_ILL10_T116_C2.png,./IMAGES_ONLINE_EXPERIMENT/MALES_CFD-WM-032-008-HC_ILL10_T116_C1.png,./IMAGES_ONLINE_EXPERIMENT/MALES_CFD-WM-023-012-A_ILL10_T116_C6.png,./IMAGES_ONLINE_EXPERIMENT/MALES_CFD-WM-034-035-HO_ILL10_T116_C3.png,./IMAGES_ONLINE_EXPERIMENT/MALES_CFD-WM-040-022-N_ILL10_T116_C5.png,./IMAGES_ONLINE_EXPERIMENT/MALES_CFD-WM-025-022-F_ILL10_T116_C4.png,./IMAGES_ONLINE_EXPERIMENT/MALES_CFD-WM-023-015-F_ILL10_T116.png,,
,,,,,213523,001,2026-03-18_10h48.28.775,RUN_BETA,2026.1.0,MacIntel,59.52380952,453.2807,453.7793,453.7829,458.2801,[-0.48516710069444446],[0.24304108796296298],[1],[0],[0],[4.499699999988081],0,110,110,82,1,./IMAGES_ONLINE_EXPERIMENT/MALES_CFD-WM-025-022-F_ILL10_T83_C1.png,./IMAGES_ONLINE_EXPERIMENT/MALES_CFD-WM-039-008-HO_ILL10_T83_C5.png,./IMAGES_ONLINE_EXPERIMENT/MALES_CFD-WM-029-009-HC_ILL10_T83_C4.png,./IMAGES_ONLINE_EXPERIMENT/MALES_CFD-WM-021-006-HC_ILL10_T83_C3.png,./IMAGES_ONLINE_EXPERIMENT/MALES_CFD-WM-015-023-F_ILL10_T83_C6.png,./IMAGES_ONLINE_EXPERIMENT/MALES_CFD-WM-014-024-F_ILL10_T83_C2.png,./IMAGES_ONLINE_EXPERIMENT/MALES_CFD-WM-015-002-N_ILL9_T83.png,,
,,,,,213523,001,2026-03-18_10h48.28.775,RUN_BETA,2026.1.0,MacIntel,59.52380952,458.2806,458.7797,458.7817,464.0133,[-0.46202618634259257],[0.20061848958333334],[1],[0],[0],[5.232599999964236],0,111,111,25,1,./IMAGES_ONLINE_EXPERIMENT/MALES_CFD-WM-011-006-HC_ILL10_T26_C6.png,./IMAGES_ONLINE_EXPERIMENT/MALES_CFD-WM-033-014-A_ILL10_T26_C3.png,./IMAGES_ONLINE_EXPERIMENT/MALES_CFD-WM-022-012-F_ILL10_T26_C4.png,./IMAGES_ONLINE_EXPERIMENT/MALES_CFD-WM-029-023-N_ILL10_T26_C1.png,./IMAGES_ONLINE_EXPERIMENT/MALES_CFD-WM-024-003-HO_ILL10_T26_C5.png,./IMAGES_ONLINE_EXPERIMENT/MALES_CFD-WM-036-018-A_ILL10_T26_C2.png,./IMAGES_ONLINE_EXPERIMENT/MALES_CFD-WM-011-002-N_ILL7_T26.png,,
,,,,,213523,001,2026-03-18_10h48.28.775,RUN_BETA,2026.1.0,MacIntel,59.52380952,464.0139,464.5137,464.5155,468.5468,[-0.015089699074074075],[0.12059100115740741],[1],[0],[0],[4.031899999976133],0,112,112,100,1,./IMAGES_ONLINE_EXPERIMENT/FEMALE_CFD-WF-025-019-N_ILL10_T101_C5.png,./IMAGES_ONLINE_EXPERIMENT/FEMALE_CFD-WF-022-023-A_ILL10_T101_C4.png,./IMAGES_ONLINE_EXPERIMENT/FEMALE_CFD-WF-012-004-HC_ILL10_T101_C3.png,./IMAGES_ONLINE_EXPERIMENT/FEMALE_CFD-WF-006-019-A_ILL10_T101_C2.png,./IMAGES_ONLINE_EXPERIMENT/FEMALE_CFD-WF-014-012-A_ILL10_T101_C1.png,./IMAGES_ONLINE_EXPERIMENT/FEMALE_CFD-WF-001-003-N_ILL10_T101_C6.png,./IMAGES_ONLINE_EXPERIMENT/FEMALE_CFD-WF-001-016-A_ILL7_T101.png,,
,,,,,213523,001,2026-03-18_10h48.28.775,RUN_BETA,2026.1.0,MacIntel,59.52380952,468.5474,469.0468,469.0488,471.1132,[0.5146086516203704],[-0.28083405671296297],[1],[0],[0],[2.0655000000000427],0,113,113,39,1,./IMAGES_ONLINE_EXPERIMENT/MALES_CFD-WM-012-005-HO_ILL10_T40_C5.png,./IMAGES_ONLINE_EXPERIMENT/MALES_CFD-WM-037-034-HO_ILL10_T40_C1.png,./IMAGES_ONLINE_EXPERIMENT/MALES_CFD-WM-011-019-F_ILL10_T40_C2.png,./IMAGES_ONLINE_EXPERIMENT/MALES_CFD-WM-038-018-F_ILL10_T40_C4.png,./IMAGES_ONLINE_EXPERIMENT/MALES_CFD-WM-021-001-N_ILL10_T40_C3.png,./IMAGES_ONLINE_EXPERIMENT/MALES_CFD-WM-028-019-F_ILL10_T40_C6.png,./IMAGES_ONLINE_EXPERIMENT/MALES_CFD-WM-028-029-A_ILL10_T40.png,,
,,,,,213523,001,2026-03-18_10h48.28.775,RUN_BETA,2026.1.0,MacIntel,59.52380952,471.1138,471.6136,471.6155,474.6803,[-0.47173032407407406],[-0.3003472222222222],[1],[0],[0],[3.0655000000000427],0,114,114,117,1,./IMAGES_ONLINE_EXPERIMENT/MALES_CFD-WM-025-019-HO_ILL10_T118_C5.png,./IMAGES_ONLINE_EXPERIMENT/MALES_CFD-WM-039-010-A_ILL10_T118_C2.png,./IMAGES_ONLINE_EXPERIMENT/MALES_CFD-WM-034-040-A_ILL10_T118_C6.png,./IMAGES_ONLINE_EXPERIMENT/MALES_CFD-WM-028-003-N_ILL10_T118_C4.png,./IMAGES_ONLINE_EXPERIMENT/MALES_CFD-WM-010-020-F_ILL10_T118_C1.png,./IMAGES_ONLINE_EXPERIMENT/MALES_CFD-WM-022-012-F_ILL10_T118_C3.png,./IMAGES_ONLINE_EXPERIMENT/MALES_CFD-WM-034-027-F_ILL10_T118.png,,
,,,,,213523,001,2026-03-18_10h48.28.775,RUN_BETA,2026.1.0,MacIntel,59.52380952,474.6812,475.1823,475.1839,479.0802,[0.0037145543981481483],[-0.25527705439814813],[1],[0],[0],[3.896800000011922],0,115,115,16,1,./IMAGES_ONLINE_EXPERIMENT/FEMALE_CFD-WF-020-012-A_ILL10_T17_C3.png,./IMAGES_ONLINE_EXPERIMENT/FEMALE_CFD-WF-028-026-A_ILL10_T17_C4.png,./IMAGES_ONLINE_EXPERIMENT/FEMALE_CFD-WF-030-002-N_ILL10_T17_C2.png,./IMAGES_ONLINE_EXPERIMENT/FEMALE_CFD-WF-025-023-HC_ILL10_T17_C1.png,./IMAGES_ONLINE_EXPERIMENT/FEMALE_CFD-WF-036-040-F_ILL10_T17_C5.png,./IMAGES_ONLINE_EXPERIMENT/FEMALE_CFD-WF-018-018-HO_ILL10_T17_C6.png,./IMAGES_ONLINE_EXPERIMENT/FEMALE_CFD-WF-018-013-F_ILL10_T17.png,,
,,,,,213523,001,2026-03-18_10h48.28.775,RUN_BETA,2026.1.0,MacIntel,59.52380952,479.0809,479.5803,479.5822,481.8801,[0.5150716145833333],[-0.27114076967592593],[1],[0],[0],[2.2987999999523367],0,116,116,69,1,./IMAGES_ONLINE_EXPERIMENT/MALES_CFD-WM-015-005-HO_ILL10_T70_C2.png,./IMAGES_ONLINE_EXPERIMENT/MALES_CFD-WM-009-009-A_ILL10_T70_C3.png,./IMAGES_ONLINE_EXPERIMENT/MALES_CFD-WM-014-024-F_ILL10_T70_C4.png,./IMAGES_ONLINE_EXPERIMENT/MALES_CFD-WM-029-023-N_ILL10_T70_C6.png,./IMAGES_ONLINE_EXPERIMENT/MALES_CFD-WM-006-010-HO_ILL10_T70_C1.png,./IMAGES_ONLINE_EXPERIMENT/MALES_CFD-WM-032-008-HC_ILL10_T70_C5.png,./IMAGES_ONLINE_EXPERIMENT/MALES_CFD-WM-029-020-F_ILL7_T70.png,,
,,,,,213523,001,2026-03-18_10h48.28.775,RUN_BETA,2026.1.0,MacIntel,59.52380952,481.8809,482.3804,482.3822,489.0467,[-0.46311125578703705],[0.18160445601851852],[1],[0],[0],[6.665199999988033],0,117,117,19,1,./IMAGES_ONLINE_EXPERIMENT/FEMALE_CFD-WF-031-009-HC_ILL10_T20_C1.png,./IMAGES_ONLINE_EXPERIMENT/FEMALE_CFD-WF-026-017-HO_ILL10_T20_C3.png,./IMAGES_ONLINE_EXPERIMENT/FEMALE_CFD-WF-030-031-HC_ILL10_T20_C5.png,./IMAGES_ONLINE_EXPERIMENT/FEMALE_CFD-WF-009-010-A_ILL10_T20_C4.png,./IMAGES_ONLINE_EXPERIMENT/FEMALE_CFD-WF-006-019-A_ILL10_T20_C6.png,./IMAGES_ONLINE_EXPERIMENT/FEMALE_CFD-WF-039-044-F_ILL10_T20_C2.png,./IMAGES_ONLINE_EXPERIMENT/FEMALE_CFD-WF-006-002-N_ILL7_T20.png,,
,,,,,213523,001,2026-03-18_10h48.28.775,RUN_BETA,2026.1.0,MacIntel,59.52380952,489.0474,489.5469,489.5491,493.2136,[0.0020869502314814813],[0.1689995659722222],[1],[0],[0],[3.6654000000357314],0,118,118,105,1,./IMAGES_ONLINE_EXPERIMENT/FEMALE_CFD-WF-013-006-HO_ILL7_T106_C2.png,./IMAGES_ONLINE_EXPERIMENT/FEMALE_CFD-WF-001-016-A_ILL7_T106_C6.png,./IMAGES_ONLINE_EXPERIMENT/FEMALE_CFD-WF-002-008-HC_ILL7_T106_C4.png,./IMAGES_ONLINE_EXPERIMENT/FEMALE_CFD-WF-022-023-A_ILL7_T106_C1.png,./IMAGES_ONLINE_EXPERIMENT/FEMALE_CFD-WF-009-006-HC_ILL7_T106_C3.png,./IMAGES_ONLINE_EXPERIMENT/FEMALE_CFD-WF-037-029-N_ILL7_T106_C5.png,./IMAGES_ONLINE_EXPERIMENT/FEMALE_CFD-WF-001-003-N_ILL7_T106.png,,
,,,,,213523,001,2026-03-18_10h48.28.775,RUN_BETA,2026.1.0,MacIntel,59.52380952,493.2143,493.7135,493.7153,498.446,[-0.40330222800925924],[0.2180374710648148],[1],[0],[0],[4.73150000000004],0,119,119,65,1,./IMAGES_ONLINE_EXPERIMENT/FEMALE_CFD-WF-015-006-N_ILL10_T66_C4.png,./IMAGES_ONLINE_EXPERIMENT/FEMALE_CFD-WF-030-033-A_ILL10_T66_C5.png,./IMAGES_ONLINE_EXPERIMENT/FEMALE_CFD-WF-031-027-N_ILL10_T66_C3.png,./IMAGES_ONLINE_EXPERIMENT/FEMALE_CFD-WF-014-002-N_ILL10_T66_C1.png,./IMAGES_ONLINE_EXPERIMENT/FEMALE_CFD-WF-012-017-F_ILL10_T66_C6.png,./IMAGES_ONLINE_EXPERIMENT/FEMALE_CFD-WF-023-021-HC_ILL10_T66_C2.png,./IMAGES_ONLINE_EXPERIMENT/FEMALE_CFD-WF-012-007-HO_ILL10_T66.png,,
