instructions.started,instructions.stopped,key_resp.keys,key_resp.rt,key_resp.duration,participant,session,"please enter F(female), M(male), O(other)",please enter your age,date,expName,psychopyVersion,OS,frameRate,fixation.started,fixation.stopped,trial.started,trial.stopped,mouse.x,mouse.y,mouse.leftButton,mouse.midButton,mouse.rightButton,mouse.time,trials.thisRepN,trials.thisTrialN,trials.thisN,trials.thisIndex,trials.ran,COMP1,COMP2,COMP3,COMP4,COMP5,COMP6,TEST_FACE,ILLUMINANT_TEST,ILLUMINANT_LINEUP
10.076,22.4972,space,12.3367,,21438,001,F,26,2026-03-24_11h26.34.511,RUN_BETA,2026.1.0,Linux x86_64,59.88023952,,,,,,,,,,,,,,,,,,,,,,,,
,,,,,21438,001,F,26,2026-03-24_11h26.34.511,RUN_BETA,2026.1.0,Linux x86_64,59.88023952,22.5558,22.9909,22.9989,31.6335,[-0.033222339771412035],[0.19217635967113353],[1],[0],[0],[8.638499999999993],0,0,0,36,1,./IMAGES_ONLINE_EXPERIMENT/FEMALE_CFD-WF-001-010-HC_ILL10_C4.png,./IMAGES_ONLINE_EXPERIMENT/FEMALE_CFD-WF-025-023-HC_ILL10_C6.png,./IMAGES_ONLINE_EXPERIMENT/FEMALE_CFD-WF-036-030-HC_ILL10_C2.png,./IMAGES_ONLINE_EXPERIMENT/FEMALE_CFD-WF-018-013-F_ILL10_C1.png,./IMAGES_ONLINE_EXPERIMENT/FEMALE_CFD-WF-006-006-HO_ILL10_C5.png,./IMAGES_ONLINE_EXPERIMENT/FEMALE_CFD-WF-009-006-HC_ILL10_C3.png,./IMAGES_ONLINE_EXPERIMENT/FEMALE_CFD-WF-025-006-HO_ILL7.png,,
,,,,,21438,001,F,26,2026-03-24_11h26.34.511,RUN_BETA,2026.1.0,Linux x86_64,59.88023952,31.6344,32.1323,32.1335,37.2973,[0.06612502204047309],[0.15582165894684968],[1],[0],[0],[5.16319999998808],0,1,1,31,1,./IMAGES_ONLINE_EXPERIMENT/MALES_CFD-WM-034-035-HO_ILL10_C3.png,./IMAGES_ONLINE_EXPERIMENT/MALES_CFD-WM-016-005-HC_ILL10_C5.png,./IMAGES_ONLINE_EXPERIMENT/MALES_CFD-WM-040-023-HO_ILL10_C1.png,./IMAGES_ONLINE_EXPERIMENT/MALES_CFD-WM-029-009-HC_ILL10_C2.png,./IMAGES_ONLINE_EXPERIMENT/MALES_CFD-WM-004-005-HC_ILL10_C6.png,./IMAGES_ONLINE_EXPERIMENT/MALES_CFD-WM-021-009-A_ILL10_C4.png,./IMAGES_ONLINE_EXPERIMENT/MALES_CFD-WM-004-011-A_ILL9.png,,
,,,,,21438,001,F,26,2026-03-24_11h26.34.511,RUN_BETA,2026.1.0,Linux x86_64,59.88023952,37.3006,37.7946,37.7984,40.7092,[0.5121656347204138],[-0.2345783798782914],[1],[0],[0],[2.912699999988078],0,2,2,114,1,./IMAGES_ONLINE_EXPERIMENT/MALES_CFD-WM-038-007-HC_ILL10_C3.png,./IMAGES_ONLINE_EXPERIMENT/MALES_CFD-WM-016-001-N_ILL10_C5.png,./IMAGES_ONLINE_EXPERIMENT/MALES_CFD-WM-011-002-N_ILL10_C2.png,./IMAGES_ONLINE_EXPERIMENT/MALES_CFD-WM-023-004-HO_ILL10_C1.png,./IMAGES_ONLINE_EXPERIMENT/MALES_CFD-WM-013-001-N_ILL10_C4.png,./IMAGES_ONLINE_EXPERIMENT/MALES_CFD-WM-015-005-HO_ILL10_C6.png,./IMAGES_ONLINE_EXPERIMENT/MALES_CFD-WM-015-002-N_ILL7.png,,
,,,,,21438,001,F,26,2026-03-24_11h26.34.511,RUN_BETA,2026.1.0,Linux x86_64,59.88023952,40.7125,41.2085,41.2124,45.0741,[-0.47097721806278936],[-0.20396868387858072],[1],[0],[0],[3.863299999982118],0,3,3,102,1,./IMAGES_ONLINE_EXPERIMENT/MALES_CFD-WM-009-006-HC_ILL10_C2.png,./IMAGES_ONLINE_EXPERIMENT/MALES_CFD-WM-039-028-F_ILL10_C4.png,./IMAGES_ONLINE_EXPERIMENT/MALES_CFD-WM-013-001-N_ILL10_C3.png,./IMAGES_ONLINE_EXPERIMENT/MALES_CFD-WM-011-006-HC_ILL10_C1.png,./IMAGES_ONLINE_EXPERIMENT/MALES_CFD-WM-003-006-HC_ILL10_C6.png,./IMAGES_ONLINE_EXPERIMENT/MALES_CFD-WM-017-003-HC_ILL10_C5.png,./IMAGES_ONLINE_EXPERIMENT/MALES_CFD-WM-003-008-A_ILL7.png,,
,,,,,21438,001,F,26,2026-03-24_11h26.34.511,RUN_BETA,2026.1.0,Linux x86_64,59.88023952,45.0775,45.5715,45.5741,49.1522,[-0.0091875570791739],[-0.2085163681595414],[1],[0],[0],[3.5791999999880773],0,4,4,103,1,./IMAGES_ONLINE_EXPERIMENT/MALES_CFD-WM-039-018-N_ILL10_C2.png,./IMAGES_ONLINE_EXPERIMENT/MALES_CFD-WM-019-013-A_ILL10_C6.png,./IMAGES_ONLINE_EXPERIMENT/MALES_CFD-WM-020-001-N_ILL10_C5.png,./IMAGES_ONLINE_EXPERIMENT/MALES_CFD-WM-026-019-A_ILL10_C1.png,./IMAGES_ONLINE_EXPERIMENT/MALES_CFD-WM-041-023-HC_ILL10_C4.png,./IMAGES_ONLINE_EXPERIMENT/MALES_CFD-WM-017-002-N_ILL10_C3.png,./IMAGES_ONLINE_EXPERIMENT/MALES_CFD-WM-019-006-HC_ILL9.png,,
,,,,,21438,001,F,26,2026-03-24_11h26.34.511,RUN_BETA,2026.1.0,Linux x86_64,59.88023952,49.1535,49.6516,49.6577,53.6168,[-0.49409142246952764],[-0.2891878905119719],[1],[0],[0],[3.963199999988092],0,5,5,20,1,./IMAGES_ONLINE_EXPERIMENT/MALES_CFD-WM-040-033-F_ILL10_C3.png,./IMAGES_ONLINE_EXPERIMENT/MALES_CFD-WM-041-021-N_ILL10_C4.png,./IMAGES_ONLINE_EXPERIMENT/MALES_CFD-WM-019-013-A_ILL10_C1.png,./IMAGES_ONLINE_EXPERIMENT/MALES_CFD-WM-014-002-N_ILL10_C6.png,./IMAGES_ONLINE_EXPERIMENT/MALES_CFD-WM-036-037-HC_ILL10_C2.png,./IMAGES_ONLINE_EXPERIMENT/MALES_CFD-WM-009-009-A_ILL10_C5.png,./IMAGES_ONLINE_EXPERIMENT/MALES_CFD-WM-014-013-A_ILL10.png,,
,,,,,21438,001,F,26,2026-03-24_11h26.34.511,RUN_BETA,2026.1.0,Linux x86_64,59.88023952,53.6194,54.1147,54.1355,57.5471,[-0.5321690594708478],[-0.2551323926007306],[1],[0],[0],[3.4301999999880763],0,6,6,26,1,./IMAGES_ONLINE_EXPERIMENT/FEMALE_CFD-WF-020-012-A_ILL10_C2.png,./IMAGES_ONLINE_EXPERIMENT/FEMALE_CFD-WF-028-026-A_ILL10_C3.png,./IMAGES_ONLINE_EXPERIMENT/FEMALE_CFD-WF-015-022-HO_ILL10_C1.png,./IMAGES_ONLINE_EXPERIMENT/FEMALE_CFD-WF-013-015-A_ILL10_C4.png,./IMAGES_ONLINE_EXPERIMENT/FEMALE_CFD-WF-031-009-HC_ILL10_C5.png,./IMAGES_ONLINE_EXPERIMENT/FEMALE_CFD-WF-039-032-A_ILL10_C6.png,./IMAGES_ONLINE_EXPERIMENT/FEMALE_CFD-WF-039-005-HO_ILL10.png,,
,,,,,21438,001,F,26,2026-03-24_11h26.34.511,RUN_BETA,2026.1.0,Linux x86_64,59.88023952,57.5533,58.0446,58.0469,61.6592,[0.004994357073748553],[-0.13758221379032842],[1],[0],[0],[3.613300000011918],0,7,7,52,1,./IMAGES_ONLINE_EXPERIMENT/FEMALE_CFD-WF-011-006-HC_ILL7_C2.png,./IMAGES_ONLINE_EXPERIMENT/FEMALE_CFD-WF-028-019-F_ILL7_C5.png,./IMAGES_ONLINE_EXPERIMENT/FEMALE_CFD-WF-033-031-A_ILL7_C4.png,./IMAGES_ONLINE_EXPERIMENT/FEMALE_CFD-WF-037-024-F_ILL7_C1.png,./IMAGES_ONLINE_EXPERIMENT/FEMALE_CFD-WF-034-028-F_ILL7_C6.png,./IMAGES_ONLINE_EXPERIMENT/FEMALE_CFD-WF-028-025-HC_ILL7_C3.png,./IMAGES_ONLINE_EXPERIMENT/FEMALE_CFD-WF-034-006-N_ILL7.png,,
,,,,,21438,001,F,26,2026-03-24_11h26.34.511,RUN_BETA,2026.1.0,Linux x86_64,59.88023952,61.6603,62.1579,62.1644,67.0713,[0.031192567613389757],[0.2911467022365994],[1],[0],[0],[4.910500000000013],0,8,8,1,1,./IMAGES_ONLINE_EXPERIMENT/FEMALE_CFD-WF-029-002-N_ILL10_C3.png,./IMAGES_ONLINE_EXPERIMENT/FEMALE_CFD-WF-006-011-F_ILL10_C4.png,./IMAGES_ONLINE_EXPERIMENT/FEMALE_CFD-WF-022-007-HC_ILL10_C1.png,./IMAGES_ONLINE_EXPERIMENT/FEMALE_CFD-WF-033-035-F_ILL10_C6.png,./IMAGES_ONLINE_EXPERIMENT/FEMALE_CFD-WF-037-029-N_ILL10_C2.png,./IMAGES_ONLINE_EXPERIMENT/FEMALE_CFD-WF-017-023-A_ILL10_C5.png,./IMAGES_ONLINE_EXPERIMENT/FEMALE_CFD-WF-033-005-HO_ILL9.png,,
,,,,,21438,001,F,26,2026-03-24_11h26.34.511,RUN_BETA,2026.1.0,Linux x86_64,59.88023952,67.0723,67.5719,67.5757,70.3513,[-0.45180783448395906],[-0.1540309058295356],[1],[0],[0],[2.7774000000059686],0,9,9,104,1,./IMAGES_ONLINE_EXPERIMENT/MALES_CFD-WM-035-032-N_ILL10_C4.png,./IMAGES_ONLINE_EXPERIMENT/MALES_CFD-WM-028-003-N_ILL10_C1.png,./IMAGES_ONLINE_EXPERIMENT/MALES_CFD-WM-009-002-N_ILL10_C3.png,./IMAGES_ONLINE_EXPERIMENT/MALES_CFD-WM-037-063-F_ILL10_C2.png,./IMAGES_ONLINE_EXPERIMENT/MALES_CFD-WM-037-033-HC_ILL10_C5.png,./IMAGES_ONLINE_EXPERIMENT/MALES_CFD-WM-014-024-F_ILL10_C6.png,./IMAGES_ONLINE_EXPERIMENT/MALES_CFD-WM-014-004-HO_ILL10.png,,
,,,,,21438,001,F,26,2026-03-24_11h26.34.511,RUN_BETA,2026.1.0,Linux x86_64,59.88023952,70.3533,70.8508,70.8544,74.6664,[-0.030978096856011286],[0.2091462523848922],[1],[0],[0],[3.813899999976144],0,10,10,61,1,./IMAGES_ONLINE_EXPERIMENT/FEMALE_CFD-WF-008-003-HO_ILL10_C2.png,./IMAGES_ONLINE_EXPERIMENT/FEMALE_CFD-WF-035-019-F_ILL10_C1.png,./IMAGES_ONLINE_EXPERIMENT/FEMALE_CFD-WF-009-015-F_ILL10_C3.png,./IMAGES_ONLINE_EXPERIMENT/FEMALE_CFD-WF-029-026-A_ILL10_C4.png,./IMAGES_ONLINE_EXPERIMENT/FEMALE_CFD-WF-033-005-HO_ILL10_C6.png,./IMAGES_ONLINE_EXPERIMENT/FEMALE_CFD-WF-016-015-N_ILL10_C5.png,./IMAGES_ONLINE_EXPERIMENT/FEMALE_CFD-WF-033-002-N_ILL9.png,,
,,,,,21438,001,F,26,2026-03-24_11h26.34.511,RUN_BETA,2026.1.0,Linux x86_64,59.88023952,74.669,75.1635,75.1674,78.0634,[-0.45593929290771484],[-0.2887518847430194],[1],[0],[0],[2.8977999999821407],0,11,11,80,1,./IMAGES_ONLINE_EXPERIMENT/MALES_CFD-WM-003-002-N_ILL10_C1.png,./IMAGES_ONLINE_EXPERIMENT/MALES_CFD-WM-012-001-N_ILL10_C2.png,./IMAGES_ONLINE_EXPERIMENT/MALES_CFD-WM-036-034-HO_ILL10_C5.png,./IMAGES_ONLINE_EXPERIMENT/MALES_CFD-WM-032-001-N_ILL10_C6.png,./IMAGES_ONLINE_EXPERIMENT/MALES_CFD-WM-009-006-HC_ILL10_C3.png,./IMAGES_ONLINE_EXPERIMENT/MALES_CFD-WM-031-038-HC_ILL10_C4.png,./IMAGES_ONLINE_EXPERIMENT/MALES_CFD-WM-032-008-HC_ILL10.png,,
,,,,,21438,001,F,26,2026-03-24_11h26.34.511,RUN_BETA,2026.1.0,Linux x86_64,59.88023952,78.0661,78.5612,78.5658,80.8758,[-0.10566633718985098],[-0.19385853520146124],[1],[0],[0],[2.312099999994018],0,12,12,119,1,./IMAGES_ONLINE_EXPERIMENT/MALES_CFD-WM-006-002-N_ILL9_C1.png,./IMAGES_ONLINE_EXPERIMENT/MALES_CFD-WM-033-025-N_ILL9_C5.png,./IMAGES_ONLINE_EXPERIMENT/MALES_CFD-WM-024-015-N_ILL9_C4.png,./IMAGES_ONLINE_EXPERIMENT/MALES_CFD-WM-010-016-A_ILL9_C3.png,./IMAGES_ONLINE_EXPERIMENT/MALES_CFD-WM-002-007-HO_ILL9_C6.png,./IMAGES_ONLINE_EXPERIMENT/MALES_CFD-WM-034-032-HC_ILL9_C2.png,./IMAGES_ONLINE_EXPERIMENT/MALES_CFD-WM-002-008-HC_ILL9.png,,
,,,,,21438,001,F,26,2026-03-24_11h26.34.511,RUN_BETA,2026.1.0,Linux x86_64,59.88023952,80.8768,81.3756,81.3794,84.2733,[-0.08079648900915075],[-0.17935766997160735],[1],[0],[0],[2.8954999999999984],0,13,13,7,1,./IMAGES_ONLINE_EXPERIMENT/MALES_CFD-WM-041-023-HC_ILL10_C4.png,./IMAGES_ONLINE_EXPERIMENT/MALES_CFD-WM-014-008-HC_ILL10_C1.png,./IMAGES_ONLINE_EXPERIMENT/MALES_CFD-WM-037-034-HO_ILL10_C3.png,./IMAGES_ONLINE_EXPERIMENT/MALES_CFD-WM-041-021-N_ILL10_C5.png,./IMAGES_ONLINE_EXPERIMENT/MALES_CFD-WM-016-001-N_ILL10_C6.png,./IMAGES_ONLINE_EXPERIMENT/MALES_CFD-WM-015-005-HO_ILL10_C2.png,./IMAGES_ONLINE_EXPERIMENT/MALES_CFD-WM-016-008-A_ILL9.png,,
,,,,,21438,001,F,26,2026-03-24_11h26.34.511,RUN_BETA,2026.1.0,Linux x86_64,59.88023952,84.2754,84.7728,84.7782,87.1559,[-0.48888012214943216],[-0.25582991706000435],[1],[0],[0],[2.380400000005949],0,14,14,59,1,./IMAGES_ONLINE_EXPERIMENT/MALES_CFD-WM-010-004-HO_ILL9_C4.png,./IMAGES_ONLINE_EXPERIMENT/MALES_CFD-WM-033-006-HC_ILL9_C1.png,./IMAGES_ONLINE_EXPERIMENT/MALES_CFD-WM-021-004-HO_ILL9_C2.png,./IMAGES_ONLINE_EXPERIMENT/MALES_CFD-WM-028-005-HC_ILL9_C6.png,./IMAGES_ONLINE_EXPERIMENT/MALES_CFD-WM-022-003-HC_ILL9_C5.png,./IMAGES_ONLINE_EXPERIMENT/MALES_CFD-WM-032-004-HO_ILL9_C3.png,./IMAGES_ONLINE_EXPERIMENT/MALES_CFD-WM-028-003-N_ILL9.png,,
,,,,,21438,001,F,26,2026-03-24_11h26.34.511,RUN_BETA,2026.1.0,Linux x86_64,59.88023952,87.1575,87.654,87.6578,90.6514,[-0.44990610193323205],[0.1611067807232892],[1],[0],[0],[2.9954000000059864],0,15,15,42,1,./IMAGES_ONLINE_EXPERIMENT/MALES_CFD-WM-025-022-F_ILL10_C6.png,./IMAGES_ONLINE_EXPERIMENT/MALES_CFD-WM-021-001-N_ILL10_C1.png,./IMAGES_ONLINE_EXPERIMENT/MALES_CFD-WM-032-021-F_ILL10_C5.png,./IMAGES_ONLINE_EXPERIMENT/MALES_CFD-WM-004-005-HC_ILL10_C4.png,./IMAGES_ONLINE_EXPERIMENT/MALES_CFD-WM-026-006-HO_ILL10_C2.png,./IMAGES_ONLINE_EXPERIMENT/MALES_CFD-WM-028-029-A_ILL10_C3.png,./IMAGES_ONLINE_EXPERIMENT/MALES_CFD-WM-025-002-N_ILL7.png,,
,,,,,21438,001,F,26,2026-03-24_11h26.34.511,RUN_BETA,2026.1.0,Linux x86_64,59.88023952,90.6533,91.1469,91.152,94.9142,[0.5730732105396412],[-0.29482297544126157],[1],[0],[0],[3.765199999988056],0,16,16,48,1,./IMAGES_ONLINE_EXPERIMENT/FEMALE_CFD-WF-026-002-N_ILL10_C5.png,./IMAGES_ONLINE_EXPERIMENT/FEMALE_CFD-WF-027-014-A_ILL10_C1.png,./IMAGES_ONLINE_EXPERIMENT/FEMALE_CFD-WF-003-007-HC_ILL10_C2.png,./IMAGES_ONLINE_EXPERIMENT/FEMALE_CFD-WF-008-005-HC_ILL10_C3.png,./IMAGES_ONLINE_EXPERIMENT/FEMALE_CFD-WF-036-026-HO_ILL10_C4.png,./IMAGES_ONLINE_EXPERIMENT/FEMALE_CFD-WF-037-016-A_ILL10_C6.png,./IMAGES_ONLINE_EXPERIMENT/FEMALE_CFD-WF-037-034-HC_ILL7.png,,
,,,,,21438,001,F,26,2026-03-24_11h26.34.511,RUN_BETA,2026.1.0,Linux x86_64,59.88023952,94.9158,95.4144,95.4184,99.7299,[-0.4842813633106373],[-0.28537206296567563],[1],[0],[0],[4.3135999999940395],0,17,17,91,1,./IMAGES_ONLINE_EXPERIMENT/MALES_CFD-WM-013-008-HC_ILL10_C4.png,./IMAGES_ONLINE_EXPERIMENT/MALES_CFD-WM-033-007-HO_ILL10_C2.png,./IMAGES_ONLINE_EXPERIMENT/MALES_CFD-WM-031-032-F_ILL10_C3.png,./IMAGES_ONLINE_EXPERIMENT/MALES_CFD-WM-026-013-F_ILL10_C6.png,./IMAGES_ONLINE_EXPERIMENT/MALES_CFD-WM-032-008-HC_ILL10_C5.png,./IMAGES_ONLINE_EXPERIMENT/MALES_CFD-WM-028-019-F_ILL10_C1.png,./IMAGES_ONLINE_EXPERIMENT/MALES_CFD-WM-026-004-HC_ILL9.png,,
,,,,,21438,001,F,26,2026-03-24_11h26.34.511,RUN_BETA,2026.1.0,Linux x86_64,59.88023952,99.7318,100.2267,100.2305,104.1429,[0.40589721114547167],[-0.2643064569543909],[1],[0],[0],[3.9140999999940504],0,18,18,65,1,./IMAGES_ONLINE_EXPERIMENT/FEMALE_CFD-WF-037-016-A_ILL9_C2.png,./IMAGES_ONLINE_EXPERIMENT/FEMALE_CFD-WF-011-006-HC_ILL9_C1.png,./IMAGES_ONLINE_EXPERIMENT/FEMALE_CFD-WF-018-018-HO_ILL9_C6.png,./IMAGES_ONLINE_EXPERIMENT/FEMALE_CFD-WF-025-006-HO_ILL9_C5.png,./IMAGES_ONLINE_EXPERIMENT/FEMALE_CFD-WF-015-006-N_ILL9_C4.png,./IMAGES_ONLINE_EXPERIMENT/FEMALE_CFD-WF-003-014-A_ILL9_C3.png,./IMAGES_ONLINE_EXPERIMENT/FEMALE_CFD-WF-018-019-HC_ILL9.png,,
,,,,,21438,001,F,26,2026-03-24_11h26.34.511,RUN_BETA,2026.1.0,Linux x86_64,59.88023952,104.1446,104.6396,104.6441,108.6029,[-0.08262005558720341],[-0.21313321148907696],[1],[0],[0],[3.9612999999821454],0,19,19,16,1,./IMAGES_ONLINE_EXPERIMENT/FEMALE_CFD-WF-001-027-F_ILL7_C6.png,./IMAGES_ONLINE_EXPERIMENT/FEMALE_CFD-WF-036-026-HO_ILL7_C2.png,./IMAGES_ONLINE_EXPERIMENT/FEMALE_CFD-WF-013-003-N_ILL7_C5.png,./IMAGES_ONLINE_EXPERIMENT/FEMALE_CFD-WF-019-032-HC_ILL7_C3.png,./IMAGES_ONLINE_EXPERIMENT/FEMALE_CFD-WF-005-016-HC_ILL7_C1.png,./IMAGES_ONLINE_EXPERIMENT/FEMALE_CFD-WF-020-027-F_ILL7_C4.png,./IMAGES_ONLINE_EXPERIMENT/FEMALE_CFD-WF-001-003-N_ILL7.png,,
,,,,,21438,001,F,26,2026-03-24_11h26.34.511,RUN_BETA,2026.1.0,Linux x86_64,59.88023952,108.6039,109.1036,109.1096,112.684,[0.5425617076732494],[0.22953134112887913],[1],[0],[0],[3.5769000000059634],0,20,20,53,1,./IMAGES_ONLINE_EXPERIMENT/FEMALE_CFD-WF-030-003-HO_ILL9_C5.png,./IMAGES_ONLINE_EXPERIMENT/FEMALE_CFD-WF-039-005-HO_ILL9_C3.png,./IMAGES_ONLINE_EXPERIMENT/FEMALE_CFD-WF-027-007-HC_ILL9_C2.png,./IMAGES_ONLINE_EXPERIMENT/FEMALE_CFD-WF-001-027-F_ILL9_C4.png,./IMAGES_ONLINE_EXPERIMENT/FEMALE_CFD-WF-029-023-HC_ILL9_C6.png,./IMAGES_ONLINE_EXPERIMENT/FEMALE_CFD-WF-002-033-A_ILL9_C1.png,./IMAGES_ONLINE_EXPERIMENT/FEMALE_CFD-WF-029-002-N_ILL9.png,,
,,,,,21438,001,F,26,2026-03-24_11h26.34.511,RUN_BETA,2026.1.0,Linux x86_64,59.88023952,112.686,113.1829,113.1967,116.5134,[0.5204654269748263],[0.23335656413325556],[1],[0],[0],[3.3281999999880725],0,21,21,84,1,./IMAGES_ONLINE_EXPERIMENT/FEMALE_CFD-WF-023-026-F_ILL10_C6.png,./IMAGES_ONLINE_EXPERIMENT/FEMALE_CFD-WF-011-016-F_ILL10_C1.png,./IMAGES_ONLINE_EXPERIMENT/FEMALE_CFD-WF-017-015-HO_ILL10_C4.png,./IMAGES_ONLINE_EXPERIMENT/FEMALE_CFD-WF-036-030-HC_ILL10_C5.png,./IMAGES_ONLINE_EXPERIMENT/FEMALE_CFD-WF-005-010-N_ILL10_C3.png,./IMAGES_ONLINE_EXPERIMENT/FEMALE_CFD-WF-003-014-A_ILL10_C2.png,./IMAGES_ONLINE_EXPERIMENT/FEMALE_CFD-WF-023-020-HO_ILL7.png,,
,,,,,21438,001,F,26,2026-03-24_11h26.34.511,RUN_BETA,2026.1.0,Linux x86_64,59.88023952,116.5151,117.014,117.0303,120.3778,[0.02000815780074508],[0.22255002127753365],[1],[0],[0],[3.361199999988088],0,22,22,15,1,./IMAGES_ONLINE_EXPERIMENT/FEMALE_CFD-WF-017-015-HO_ILL10_C4.png,./IMAGES_ONLINE_EXPERIMENT/FEMALE_CFD-WF-018-013-F_ILL10_C2.png,./IMAGES_ONLINE_EXPERIMENT/FEMALE_CFD-WF-031-045-F_ILL10_C5.png,./IMAGES_ONLINE_EXPERIMENT/FEMALE_CFD-WF-036-030-HC_ILL10_C6.png,./IMAGES_ONLINE_EXPERIMENT/FEMALE_CFD-WF-015-022-HO_ILL10_C1.png,./IMAGES_ONLINE_EXPERIMENT/FEMALE_CFD-WF-005-022-A_ILL10_C3.png,./IMAGES_ONLINE_EXPERIMENT/FEMALE_CFD-WF-036-040-F_ILL10.png,,
,,,,,21438,001,F,26,2026-03-24_11h26.34.511,RUN_BETA,2026.1.0,Linux x86_64,59.88023952,120.3794,120.8763,120.8797,127.8397,[-0.4823258011429398],[0.21548373610885055],[1],[0],[0],[6.961500000000001],0,23,23,90,1,./IMAGES_ONLINE_EXPERIMENT/MALES_CFD-WM-012-005-HO_ILL10_C3.png,./IMAGES_ONLINE_EXPERIMENT/MALES_CFD-WM-011-011-A_ILL10_C5.png,./IMAGES_ONLINE_EXPERIMENT/MALES_CFD-WM-039-010-A_ILL10_C1.png,./IMAGES_ONLINE_EXPERIMENT/MALES_CFD-WM-020-003-HO_ILL10_C4.png,./IMAGES_ONLINE_EXPERIMENT/MALES_CFD-WM-019-009-HO_ILL10_C2.png,./IMAGES_ONLINE_EXPERIMENT/MALES_CFD-WM-004-005-HC_ILL10_C6.png,./IMAGES_ONLINE_EXPERIMENT/MALES_CFD-WM-004-011-A_ILL7.png,,
,,,,,21438,001,F,26,2026-03-24_11h26.34.511,RUN_BETA,2026.1.0,Linux x86_64,59.88023952,127.8416,128.3317,128.3366,130.6545,[0.019188492386429397],[0.17935145342791523],[1],[0],[0],[2.320799999982114],0,24,24,60,1,./IMAGES_ONLINE_EXPERIMENT/FEMALE_CFD-WF-015-027-F_ILL10_C4.png,./IMAGES_ONLINE_EXPERIMENT/FEMALE_CFD-WF-031-005-HO_ILL10_C6.png,./IMAGES_ONLINE_EXPERIMENT/FEMALE_CFD-WF-027-014-A_ILL10_C1.png,./IMAGES_ONLINE_EXPERIMENT/FEMALE_CFD-WF-014-009-HC_ILL10_C5.png,./IMAGES_ONLINE_EXPERIMENT/FEMALE_CFD-WF-006-006-HO_ILL10_C2.png,./IMAGES_ONLINE_EXPERIMENT/FEMALE_CFD-WF-019-032-HC_ILL10_C3.png,./IMAGES_ONLINE_EXPERIMENT/FEMALE_CFD-WF-031-009-HC_ILL7.png,,
,,,,,21438,001,F,26,2026-03-24_11h26.34.511,RUN_BETA,2026.1.0,Linux x86_64,59.88023952,130.656,131.1514,131.1567,134.1987,[0.5239003499348959],[-0.24340551870840568],[1],[0],[0],[3.045000000000016],0,25,25,107,1,./IMAGES_ONLINE_EXPERIMENT/MALES_CFD-WM-033-025-N_ILL9_C1.png,./IMAGES_ONLINE_EXPERIMENT/MALES_CFD-WM-003-008-A_ILL9_C6.png,./IMAGES_ONLINE_EXPERIMENT/MALES_CFD-WM-024-010-A_ILL9_C5.png,./IMAGES_ONLINE_EXPERIMENT/MALES_CFD-WM-029-020-F_ILL9_C3.png,./IMAGES_ONLINE_EXPERIMENT/MALES_CFD-WM-006-039-F_ILL9_C4.png,./IMAGES_ONLINE_EXPERIMENT/MALES_CFD-WM-016-008-A_ILL9_C2.png,./IMAGES_ONLINE_EXPERIMENT/MALES_CFD-WM-003-006-HC_ILL9.png,,
,,,,,21438,001,F,26,2026-03-24_11h26.34.511,RUN_BETA,2026.1.0,Linux x86_64,59.88023952,134.2005,134.6982,134.7021,137.4466,[0.5537667451081453],[0.21978434809932001],[1],[0],[0],[2.74610000002383],0,26,26,98,1,./IMAGES_ONLINE_EXPERIMENT/FEMALE_CFD-WF-013-006-HO_ILL10_C3.png,./IMAGES_ONLINE_EXPERIMENT/FEMALE_CFD-WF-018-017-N_ILL10_C1.png,./IMAGES_ONLINE_EXPERIMENT/FEMALE_CFD-WF-001-009-HO_ILL10_C6.png,./IMAGES_ONLINE_EXPERIMENT/FEMALE_CFD-WF-019-005-N_ILL10_C4.png,./IMAGES_ONLINE_EXPERIMENT/FEMALE_CFD-WF-033-002-N_ILL10_C2.png,./IMAGES_ONLINE_EXPERIMENT/FEMALE_CFD-WF-039-008-HC_ILL10_C5.png,./IMAGES_ONLINE_EXPERIMENT/FEMALE_CFD-WF-001-027-F_ILL10.png,,
,,,,,21438,001,F,26,2026-03-24_11h26.34.511,RUN_BETA,2026.1.0,Linux x86_64,59.88023952,137.4517,137.9462,137.95,140.6772,[-0.49314343487774887],[0.22255410088433158],[1],[0],[0],[2.7290000000000134],0,27,27,96,1,./IMAGES_ONLINE_EXPERIMENT/FEMALE_CFD-WF-011-006-HC_ILL10_C6.png,./IMAGES_ONLINE_EXPERIMENT/FEMALE_CFD-WF-016-017-HC_ILL10_C5.png,./IMAGES_ONLINE_EXPERIMENT/FEMALE_CFD-WF-010-014-A_ILL10_C3.png,./IMAGES_ONLINE_EXPERIMENT/FEMALE_CFD-WF-033-005-HO_ILL10_C1.png,./IMAGES_ONLINE_EXPERIMENT/FEMALE_CFD-WF-030-026-F_ILL10_C4.png,./IMAGES_ONLINE_EXPERIMENT/FEMALE_CFD-WF-016-015-N_ILL10_C2.png,./IMAGES_ONLINE_EXPERIMENT/FEMALE_CFD-WF-011-016-F_ILL7.png,,
,,,,,21438,001,F,26,2026-03-24_11h26.34.511,RUN_BETA,2026.1.0,Linux x86_64,59.88023952,140.6793,141.1764,141.1816,143.8249,[-0.4713108274671767],[0.18494362301296657],[1],[0],[0],[2.6456000000238475],0,28,28,33,1,./IMAGES_ONLINE_EXPERIMENT/MALES_CFD-WM-002-007-HO_ILL10_C6.png,./IMAGES_ONLINE_EXPERIMENT/MALES_CFD-WM-026-019-A_ILL10_C4.png,./IMAGES_ONLINE_EXPERIMENT/MALES_CFD-WM-020-005-HC_ILL10_C1.png,./IMAGES_ONLINE_EXPERIMENT/MALES_CFD-WM-039-018-N_ILL10_C2.png,./IMAGES_ONLINE_EXPERIMENT/MALES_CFD-WM-009-014-F_ILL10_C5.png,./IMAGES_ONLINE_EXPERIMENT/MALES_CFD-WM-019-013-A_ILL10_C3.png,./IMAGES_ONLINE_EXPERIMENT/MALES_CFD-WM-002-009-N_ILL10.png,,
,,,,,21438,001,F,26,2026-03-24_11h26.34.511,RUN_BETA,2026.1.0,Linux x86_64,59.88023952,143.8265,144.3241,144.3279,147.0904,[-0.05633467215078848],[-0.17894836708351416],[1],[0],[0],[2.7641000000238307],0,29,29,43,1,./IMAGES_ONLINE_EXPERIMENT/MALES_CFD-WM-038-007-HC_ILL10_C5.png,./IMAGES_ONLINE_EXPERIMENT/MALES_CFD-WM-039-010-A_ILL10_C3.png,./IMAGES_ONLINE_EXPERIMENT/MALES_CFD-WM-031-045-A_ILL10_C1.png,./IMAGES_ONLINE_EXPERIMENT/MALES_CFD-WM-023-007-HC_ILL10_C6.png,./IMAGES_ONLINE_EXPERIMENT/MALES_CFD-WM-004-010-N_ILL10_C4.png,./IMAGES_ONLINE_EXPERIMENT/MALES_CFD-WM-003-008-A_ILL10_C2.png,./IMAGES_ONLINE_EXPERIMENT/MALES_CFD-WM-023-012-A_ILL9.png,,
,,,,,21438,001,F,26,2026-03-24_11h26.34.511,RUN_BETA,2026.1.0,Linux x86_64,59.88023952,147.0919,147.5875,147.591,151.135,[-0.4685223544085467],[-0.18308978610568577],[1],[0],[0],[3.5459000000059575],0,30,30,27,1,./IMAGES_ONLINE_EXPERIMENT/FEMALE_CFD-WF-014-009-HC_ILL10_C5.png,./IMAGES_ONLINE_EXPERIMENT/FEMALE_CFD-WF-011-003-HO_ILL10_C3.png,./IMAGES_ONLINE_EXPERIMENT/FEMALE_CFD-WF-023-026-F_ILL10_C1.png,./IMAGES_ONLINE_EXPERIMENT/FEMALE_CFD-WF-003-007-HC_ILL10_C6.png,./IMAGES_ONLINE_EXPERIMENT/FEMALE_CFD-WF-021-016-HO_ILL10_C4.png,./IMAGES_ONLINE_EXPERIMENT/FEMALE_CFD-WF-012-012-A_ILL10_C2.png,./IMAGES_ONLINE_EXPERIMENT/FEMALE_CFD-WF-003-004-HO_ILL10.png,,
,,,,,21438,001,F,26,2026-03-24_11h26.34.511,RUN_BETA,2026.1.0,Linux x86_64,59.88023952,151.136,151.6341,151.6351,154.6041,[-0.5586718806514034],[-0.2543082060637297],[1],[0],[0],[2.969200000017878],0,31,31,63,1,./IMAGES_ONLINE_EXPERIMENT/FEMALE_CFD-WF-028-025-HC_ILL10_C2.png,./IMAGES_ONLINE_EXPERIMENT/FEMALE_CFD-WF-025-006-HO_ILL10_C3.png,./IMAGES_ONLINE_EXPERIMENT/FEMALE_CFD-WF-025-031-F_ILL10_C1.png,./IMAGES_ONLINE_EXPERIMENT/FEMALE_CFD-WF-025-023-HC_ILL10_C4.png,./IMAGES_ONLINE_EXPERIMENT/FEMALE_CFD-WF-012-007-HO_ILL10_C6.png,./IMAGES_ONLINE_EXPERIMENT/FEMALE_CFD-WF-016-021-A_ILL10_C5.png,./IMAGES_ONLINE_EXPERIMENT/FEMALE_CFD-WF-012-012-A_ILL10.png,,
,,,,,21438,001,F,26,2026-03-24_11h26.34.511,RUN_BETA,2026.1.0,Linux x86_64,59.88023952,154.6046,155.1132,155.1185,158.2963,[-0.4084429211086697],[-0.28621864318847656],[1],[0],[0],[3.1786999999880834],0,32,32,83,1,./IMAGES_ONLINE_EXPERIMENT/MALES_CFD-WM-032-004-HO_ILL9_C3.png,./IMAGES_ONLINE_EXPERIMENT/MALES_CFD-WM-028-005-HC_ILL9_C5.png,./IMAGES_ONLINE_EXPERIMENT/MALES_CFD-WM-016-005-HC_ILL9_C4.png,./IMAGES_ONLINE_EXPERIMENT/MALES_CFD-WM-010-004-HO_ILL9_C1.png,./IMAGES_ONLINE_EXPERIMENT/MALES_CFD-WM-019-006-HC_ILL9_C6.png,./IMAGES_ONLINE_EXPERIMENT/MALES_CFD-WM-034-030-N_ILL9_C2.png,./IMAGES_ONLINE_EXPERIMENT/MALES_CFD-WM-019-009-HO_ILL9.png,,
,,,,,21438,001,F,26,2026-03-24_11h26.34.511,RUN_BETA,2026.1.0,Linux x86_64,59.88023952,158.2986,158.7951,158.7992,161.5964,[-0.06590899714717159],[-0.3103485107421875],[1],[0],[0],[2.7990999999940414],0,33,33,49,1,./IMAGES_ONLINE_EXPERIMENT/FEMALE_CFD-WF-037-029-N_ILL10_C3.png,./IMAGES_ONLINE_EXPERIMENT/FEMALE_CFD-WF-039-005-HO_ILL10_C5.png,./IMAGES_ONLINE_EXPERIMENT/FEMALE_CFD-WF-018-019-HC_ILL10_C2.png,./IMAGES_ONLINE_EXPERIMENT/FEMALE_CFD-WF-034-016-A_ILL10_C6.png,./IMAGES_ONLINE_EXPERIMENT/FEMALE_CFD-WF-006-006-HO_ILL10_C1.png,./IMAGES_ONLINE_EXPERIMENT/FEMALE_CFD-WF-007-029-A_ILL10_C4.png,./IMAGES_ONLINE_EXPERIMENT/FEMALE_CFD-WF-034-033-HO_ILL9.png,,
,,,,,21438,001,F,26,2026-03-24_11h26.34.511,RUN_BETA,2026.1.0,Linux x86_64,59.88023952,161.5988,162.0927,162.0964,164.1075,[-0.05158551534016927],[-0.25710070574725113],[1],[0],[0],[2.012899999976156],0,34,34,18,1,./IMAGES_ONLINE_EXPERIMENT/MALES_CFD-WM-022-003-HC_ILL10_C5.png,./IMAGES_ONLINE_EXPERIMENT/MALES_CFD-WM-014-004-HO_ILL10_C4.png,./IMAGES_ONLINE_EXPERIMENT/MALES_CFD-WM-038-005-HO_ILL10_C3.png,./IMAGES_ONLINE_EXPERIMENT/MALES_CFD-WM-037-033-HC_ILL10_C2.png,./IMAGES_ONLINE_EXPERIMENT/MALES_CFD-WM-019-009-HO_ILL10_C1.png,./IMAGES_ONLINE_EXPERIMENT/MALES_CFD-WM-021-006-HC_ILL10_C6.png,./IMAGES_ONLINE_EXPERIMENT/MALES_CFD-WM-021-009-A_ILL7.png,,
,,,,,21438,001,F,26,2026-03-24_11h26.34.511,RUN_BETA,2026.1.0,Linux x86_64,59.88023952,164.1092,164.6074,164.6141,167.9729,[0.02090418780291522],[0.17824572103994865],[1],[0],[0],[3.3615000000000066],0,35,35,117,1,./IMAGES_ONLINE_EXPERIMENT/MALES_CFD-WM-013-006-HO_ILL10_C5.png,./IMAGES_ONLINE_EXPERIMENT/MALES_CFD-WM-022-012-F_ILL10_C6.png,./IMAGES_ONLINE_EXPERIMENT/MALES_CFD-WM-031-004-HO_ILL10_C3.png,./IMAGES_ONLINE_EXPERIMENT/MALES_CFD-WM-012-026-F_ILL10_C1.png,./IMAGES_ONLINE_EXPERIMENT/MALES_CFD-WM-036-031-N_ILL10_C2.png,./IMAGES_ONLINE_EXPERIMENT/MALES_CFD-WM-018-007-A_ILL10_C4.png,./IMAGES_ONLINE_EXPERIMENT/MALES_CFD-WM-022-005-HO_ILL10.png,,
,,,,,21438,001,F,26,2026-03-24_11h26.34.511,RUN_BETA,2026.1.0,Linux x86_64,59.88023952,167.974,168.472,168.491,171.718,[-0.44291153660526983],[0.20511819698192454],[1],[0],[0],[3.2297000000178855],0,36,36,47,1,./IMAGES_ONLINE_EXPERIMENT/MALES_CFD-WM-012-026-F_ILL9_C3.png,./IMAGES_ONLINE_EXPERIMENT/MALES_CFD-WM-001-007-HC_ILL9_C4.png,./IMAGES_ONLINE_EXPERIMENT/MALES_CFD-WM-013-015-A_ILL9_C6.png,./IMAGES_ONLINE_EXPERIMENT/MALES_CFD-WM-022-008-A_ILL9_C2.png,./IMAGES_ONLINE_EXPERIMENT/MALES_CFD-WM-006-013-HC_ILL9_C1.png,./IMAGES_ONLINE_EXPERIMENT/MALES_CFD-WM-006-010-HO_ILL9_C5.png,./IMAGES_ONLINE_EXPERIMENT/MALES_CFD-WM-013-019-F_ILL9.png,,
,,,,,21438,001,F,26,2026-03-24_11h26.34.511,RUN_BETA,2026.1.0,Linux x86_64,59.88023952,171.7204,172.2179,172.2239,175.1684,[-0.4634340427539967],[0.19663079579671225],[1],[0],[0],[2.947499999999991],0,37,37,66,1,./IMAGES_ONLINE_EXPERIMENT/MALES_CFD-WM-024-003-HO_ILL10_C6.png,./IMAGES_ONLINE_EXPERIMENT/MALES_CFD-WM-017-002-N_ILL10_C5.png,./IMAGES_ONLINE_EXPERIMENT/MALES_CFD-WM-015-023-F_ILL10_C4.png,./IMAGES_ONLINE_EXPERIMENT/MALES_CFD-WM-040-007-A_ILL10_C3.png,./IMAGES_ONLINE_EXPERIMENT/MALES_CFD-WM-028-019-F_ILL10_C2.png,./IMAGES_ONLINE_EXPERIMENT/MALES_CFD-WM-017-003-HC_ILL10_C1.png,./IMAGES_ONLINE_EXPERIMENT/MALES_CFD-WM-024-015-N_ILL7.png,,
,,,,,21438,001,F,26,2026-03-24_11h26.34.511,RUN_BETA,2026.1.0,Linux x86_64,59.88023952,175.171,175.6645,175.6684,178.0463,[-0.4605729844835069],[-0.266683437206127],[1],[0],[0],[2.3799000000059323],0,38,38,46,1,./IMAGES_ONLINE_EXPERIMENT/MALES_CFD-WM-038-018-F_ILL7_C2.png,./IMAGES_ONLINE_EXPERIMENT/MALES_CFD-WM-002-009-N_ILL7_C4.png,./IMAGES_ONLINE_EXPERIMENT/MALES_CFD-WM-013-006-HO_ILL7_C6.png,./IMAGES_ONLINE_EXPERIMENT/MALES_CFD-WM-025-018-HC_ILL7_C3.png,./IMAGES_ONLINE_EXPERIMENT/MALES_CFD-WM-040-022-N_ILL7_C5.png,./IMAGES_ONLINE_EXPERIMENT/MALES_CFD-WM-010-020-F_ILL7_C1.png,./IMAGES_ONLINE_EXPERIMENT/MALES_CFD-WM-013-015-A_ILL7.png,,
,,,,,21438,001,F,26,2026-03-24_11h26.34.511,RUN_BETA,2026.1.0,Linux x86_64,59.88023952,178.048,178.5459,178.552,183.5583,[-0.5056573020087348],[0.1941231268423575],[1],[0],[0],[5.010599999994042],0,39,39,54,1,./IMAGES_ONLINE_EXPERIMENT/MALES_CFD-WM-038-011-A_ILL10_C4.png,./IMAGES_ONLINE_EXPERIMENT/MALES_CFD-WM-031-003-N_ILL10_C6.png,./IMAGES_ONLINE_EXPERIMENT/MALES_CFD-WM-009-014-F_ILL10_C5.png,./IMAGES_ONLINE_EXPERIMENT/MALES_CFD-WM-037-034-HO_ILL10_C3.png,./IMAGES_ONLINE_EXPERIMENT/MALES_CFD-WM-040-025-HC_ILL10_C1.png,./IMAGES_ONLINE_EXPERIMENT/MALES_CFD-WM-020-012-F_ILL10_C2.png,./IMAGES_ONLINE_EXPERIMENT/MALES_CFD-WM-031-004-HO_ILL7.png,,
,,,,,21438,001,F,26,2026-03-24_11h26.34.511,RUN_BETA,2026.1.0,Linux x86_64,59.88023952,183.5625,184.0579,184.0619,189.5216,[0.048483177467628764],[0.23239692052205405],[1],[0],[0],[5.46169999998807],0,40,40,81,1,./IMAGES_ONLINE_EXPERIMENT/MALES_CFD-WM-012-001-N_ILL10_C4.png,./IMAGES_ONLINE_EXPERIMENT/MALES_CFD-WM-012-005-HO_ILL10_C5.png,./IMAGES_ONLINE_EXPERIMENT/MALES_CFD-WM-028-007-HO_ILL10_C3.png,./IMAGES_ONLINE_EXPERIMENT/MALES_CFD-WM-010-020-F_ILL10_C6.png,./IMAGES_ONLINE_EXPERIMENT/MALES_CFD-WM-006-013-HC_ILL10_C2.png,./IMAGES_ONLINE_EXPERIMENT/MALES_CFD-WM-014-024-F_ILL10_C1.png,./IMAGES_ONLINE_EXPERIMENT/MALES_CFD-WM-010-016-A_ILL10.png,,
,,,,,21438,001,F,26,2026-03-24_11h26.34.511,RUN_BETA,2026.1.0,Linux x86_64,59.88023952,189.5242,190.015,190.0207,193.6161,[0.5393234535499856],[0.16210135707148798],[1],[0],[0],[3.598000000000013],0,41,41,72,1,./IMAGES_ONLINE_EXPERIMENT/FEMALE_CFD-WF-015-006-N_ILL10_C5.png,./IMAGES_ONLINE_EXPERIMENT/FEMALE_CFD-WF-001-009-HO_ILL10_C4.png,./IMAGES_ONLINE_EXPERIMENT/FEMALE_CFD-WF-024-031-F_ILL10_C6.png,./IMAGES_ONLINE_EXPERIMENT/FEMALE_CFD-WF-007-026-F_ILL10_C3.png,./IMAGES_ONLINE_EXPERIMENT/FEMALE_CFD-WF-037-029-N_ILL10_C2.png,./IMAGES_ONLINE_EXPERIMENT/FEMALE_CFD-WF-023-013-A_ILL10_C1.png,./IMAGES_ONLINE_EXPERIMENT/FEMALE_CFD-WF-024-010-HC_ILL7.png,,
,,,,,21438,001,F,26,2026-03-24_11h26.34.511,RUN_BETA,2026.1.0,Linux x86_64,59.88023952,193.6171,194.1159,194.1201,196.8471,[-0.4623606999715169],[-0.2416722332989728],[1],[0],[0],[2.7293000000119036],0,42,42,87,1,./IMAGES_ONLINE_EXPERIMENT/FEMALE_CFD-WF-019-024-F_ILL10_C3.png,./IMAGES_ONLINE_EXPERIMENT/FEMALE_CFD-WF-024-010-HC_ILL10_C4.png,./IMAGES_ONLINE_EXPERIMENT/FEMALE_CFD-WF-001-010-HC_ILL10_C1.png,./IMAGES_ONLINE_EXPERIMENT/FEMALE_CFD-WF-029-026-A_ILL10_C5.png,./IMAGES_ONLINE_EXPERIMENT/FEMALE_CFD-WF-034-006-N_ILL10_C6.png,./IMAGES_ONLINE_EXPERIMENT/FEMALE_CFD-WF-022-023-A_ILL10_C2.png,./IMAGES_ONLINE_EXPERIMENT/FEMALE_CFD-WF-034-016-A_ILL10.png,,
,,,,,21438,001,F,26,2026-03-24_11h26.34.511,RUN_BETA,2026.1.0,Linux x86_64,59.88023952,196.8485,197.3468,197.363,200.9784,[0.44567814579716436],[0.18180681157995154],[1],[0],[0],[3.6291999999880886],0,43,43,69,1,./IMAGES_ONLINE_EXPERIMENT/MALES_CFD-WM-036-018-A_ILL10_C5.png,./IMAGES_ONLINE_EXPERIMENT/MALES_CFD-WM-032-001-N_ILL10_C6.png,./IMAGES_ONLINE_EXPERIMENT/MALES_CFD-WM-010-004-HO_ILL10_C2.png,./IMAGES_ONLINE_EXPERIMENT/MALES_CFD-WM-023-015-F_ILL10_C3.png,./IMAGES_ONLINE_EXPERIMENT/MALES_CFD-WM-034-030-N_ILL10_C1.png,./IMAGES_ONLINE_EXPERIMENT/MALES_CFD-WM-014-002-N_ILL10_C4.png,./IMAGES_ONLINE_EXPERIMENT/MALES_CFD-WM-032-021-F_ILL10.png,,
,,,,,21438,001,F,26,2026-03-24_11h26.34.511,RUN_BETA,2026.1.0,Linux x86_64,59.88023952,200.9803,201.4771,201.4808,204.1241,[-0.44145502867522063],[-0.239945235075774],[1],[0],[0],[2.6454000000059636],0,44,44,115,1,./IMAGES_ONLINE_EXPERIMENT/MALES_CFD-WM-024-007-HC_ILL10_C4.png,./IMAGES_ONLINE_EXPERIMENT/MALES_CFD-WM-031-004-HO_ILL10_C1.png,./IMAGES_ONLINE_EXPERIMENT/MALES_CFD-WM-032-004-HO_ILL10_C2.png,./IMAGES_ONLINE_EXPERIMENT/MALES_CFD-WM-017-011-A_ILL10_C6.png,./IMAGES_ONLINE_EXPERIMENT/MALES_CFD-WM-021-006-HC_ILL10_C5.png,./IMAGES_ONLINE_EXPERIMENT/MALES_CFD-WM-009-014-F_ILL10_C3.png,./IMAGES_ONLINE_EXPERIMENT/MALES_CFD-WM-017-002-N_ILL9.png,,
,,,,,21438,001,F,26,2026-03-24_11h26.34.511,RUN_BETA,2026.1.0,Linux x86_64,59.88023952,204.1249,204.6246,204.6283,208.4883,[0.11025471157497829],[0.19668236485234014],[1],[0],[0],[3.8618000000119537],0,45,45,77,1,./IMAGES_ONLINE_EXPERIMENT/FEMALE_CFD-WF-023-003-N_ILL9_C4.png,./IMAGES_ONLINE_EXPERIMENT/FEMALE_CFD-WF-031-027-N_ILL9_C6.png,./IMAGES_ONLINE_EXPERIMENT/FEMALE_CFD-WF-036-030-HC_ILL9_C2.png,./IMAGES_ONLINE_EXPERIMENT/FEMALE_CFD-WF-007-001-N_ILL9_C1.png,./IMAGES_ONLINE_EXPERIMENT/FEMALE_CFD-WF-006-011-F_ILL9_C5.png,./IMAGES_ONLINE_EXPERIMENT/FEMALE_CFD-WF-018-018-HO_ILL9_C3.png,./IMAGES_ONLINE_EXPERIMENT/FEMALE_CFD-WF-031-009-HC_ILL9.png,,
,,,,,21438,001,F,26,2026-03-24_11h26.34.511,RUN_BETA,2026.1.0,Linux x86_64,59.88023952,208.4902,208.9872,208.9908,211.7041,[0.01640941478587963],[0.26957393575597693],[1],[0],[0],[2.714999999999975],0,46,46,68,1,./IMAGES_ONLINE_EXPERIMENT/MALES_CFD-WM-033-025-N_ILL10_C2.png,./IMAGES_ONLINE_EXPERIMENT/MALES_CFD-WM-039-008-HO_ILL10_C6.png,./IMAGES_ONLINE_EXPERIMENT/MALES_CFD-WM-020-005-HC_ILL10_C5.png,./IMAGES_ONLINE_EXPERIMENT/MALES_CFD-WM-024-010-A_ILL10_C1.png,./IMAGES_ONLINE_EXPERIMENT/MALES_CFD-WM-020-012-F_ILL10_C3.png,./IMAGES_ONLINE_EXPERIMENT/MALES_CFD-WM-012-005-HO_ILL10_C4.png,./IMAGES_ONLINE_EXPERIMENT/MALES_CFD-WM-039-028-F_ILL10.png,,
,,,,,21438,001,F,26,2026-03-24_11h26.34.511,RUN_BETA,2026.1.0,Linux x86_64,59.88023952,211.706,212.2029,212.2077,215.5154,[0.5383389790852865],[0.16718048519558376],[1],[0],[0],[3.3096999999880836],0,47,47,29,1,./IMAGES_ONLINE_EXPERIMENT/FEMALE_CFD-WF-010-006-HO_ILL9_C1.png,./IMAGES_ONLINE_EXPERIMENT/FEMALE_CFD-WF-012-012-A_ILL9_C4.png,./IMAGES_ONLINE_EXPERIMENT/FEMALE_CFD-WF-036-023-N_ILL9_C2.png,./IMAGES_ONLINE_EXPERIMENT/FEMALE_CFD-WF-005-010-N_ILL9_C6.png,./IMAGES_ONLINE_EXPERIMENT/FEMALE_CFD-WF-026-017-HO_ILL9_C3.png,./IMAGES_ONLINE_EXPERIMENT/FEMALE_CFD-WF-028-023-N_ILL9_C5.png,./IMAGES_ONLINE_EXPERIMENT/FEMALE_CFD-WF-005-013-HO_ILL9.png,,
,,,,,21438,001,F,26,2026-03-24_11h26.34.511,RUN_BETA,2026.1.0,Linux x86_64,59.88023952,215.5175,216.0149,216.0194,219.0953,[-0.4600383617259838],[0.14380564513029875],[1],[0],[0],[3.0785000000000196],0,48,48,71,1,./IMAGES_ONLINE_EXPERIMENT/MALES_CFD-WM-037-025-N_ILL9_C5.png,./IMAGES_ONLINE_EXPERIMENT/MALES_CFD-WM-026-004-HC_ILL9_C1.png,./IMAGES_ONLINE_EXPERIMENT/MALES_CFD-WM-033-053-F_ILL9_C4.png,./IMAGES_ONLINE_EXPERIMENT/MALES_CFD-WM-006-039-F_ILL9_C6.png,./IMAGES_ONLINE_EXPERIMENT/MALES_CFD-WM-021-009-A_ILL9_C2.png,./IMAGES_ONLINE_EXPERIMENT/MALES_CFD-WM-031-045-A_ILL9_C3.png,./IMAGES_ONLINE_EXPERIMENT/MALES_CFD-WM-006-022-A_ILL9.png,,
,,,,,21438,001,F,26,2026-03-24_11h26.34.511,RUN_BETA,2026.1.0,Linux x86_64,59.88023952,219.0962,219.5949,219.6004,223.7761,[0.4931134824399595],[-0.3254214392768012],[1],[0],[0],[4.179600000023811],0,49,49,70,1,./IMAGES_ONLINE_EXPERIMENT/MALES_CFD-WM-016-008-A_ILL7_C1.png,./IMAGES_ONLINE_EXPERIMENT/MALES_CFD-WM-029-009-HC_ILL7_C6.png,./IMAGES_ONLINE_EXPERIMENT/MALES_CFD-WM-036-047-F_ILL7_C3.png,./IMAGES_ONLINE_EXPERIMENT/MALES_CFD-WM-009-004-HO_ILL7_C4.png,./IMAGES_ONLINE_EXPERIMENT/MALES_CFD-WM-015-009-HC_ILL7_C2.png,./IMAGES_ONLINE_EXPERIMENT/MALES_CFD-WM-016-005-HC_ILL7_C5.png,./IMAGES_ONLINE_EXPERIMENT/MALES_CFD-WM-029-023-N_ILL7.png,,
,,,,,21438,001,F,26,2026-03-24_11h26.34.511,RUN_BETA,2026.1.0,Linux x86_64,59.88023952,223.7777,224.2743,224.2955,227.2554,[0.10282297487612124],[-0.283747637713397],[1],[0],[0],[2.9795999999940364],0,50,50,94,1,./IMAGES_ONLINE_EXPERIMENT/MALES_CFD-WM-033-006-HC_ILL7_C5.png,./IMAGES_ONLINE_EXPERIMENT/MALES_CFD-WM-029-009-HC_ILL7_C3.png,./IMAGES_ONLINE_EXPERIMENT/MALES_CFD-WM-039-018-N_ILL7_C4.png,./IMAGES_ONLINE_EXPERIMENT/MALES_CFD-WM-033-025-N_ILL7_C2.png,./IMAGES_ONLINE_EXPERIMENT/MALES_CFD-WM-009-014-F_ILL7_C6.png,./IMAGES_ONLINE_EXPERIMENT/MALES_CFD-WM-026-001-N_ILL7_C1.png,./IMAGES_ONLINE_EXPERIMENT/MALES_CFD-WM-009-004-HO_ILL7.png,,
,,,,,21438,001,F,26,2026-03-24_11h26.34.511,RUN_BETA,2026.1.0,Linux x86_64,59.88023952,227.2561,227.7553,227.7588,231.7354,[-0.4551945085878725],[0.19460685164840133],[1],[0],[0],[3.9783999999761477],0,51,51,110,1,./IMAGES_ONLINE_EXPERIMENT/FEMALE_CFD-WF-024-003-N_ILL10_C2.png,./IMAGES_ONLINE_EXPERIMENT/FEMALE_CFD-WF-031-005-HO_ILL10_C3.png,./IMAGES_ONLINE_EXPERIMENT/FEMALE_CFD-WF-034-028-F_ILL10_C6.png,./IMAGES_ONLINE_EXPERIMENT/FEMALE_CFD-WF-014-004-HO_ILL10_C1.png,./IMAGES_ONLINE_EXPERIMENT/FEMALE_CFD-WF-013-003-N_ILL10_C4.png,./IMAGES_ONLINE_EXPERIMENT/FEMALE_CFD-WF-023-020-HO_ILL10_C5.png,./IMAGES_ONLINE_EXPERIMENT/FEMALE_CFD-WF-034-061-HC_ILL10.png,,
,,,,,21438,001,F,26,2026-03-24_11h26.34.511,RUN_BETA,2026.1.0,Linux x86_64,59.88023952,231.7378,232.235,232.2393,234.483,[-0.47562210648148145],[-0.23480938099048757],[1],[0],[0],[2.245999999999981],0,52,52,67,1,./IMAGES_ONLINE_EXPERIMENT/MALES_CFD-WM-013-015-A_ILL10_C2.png,./IMAGES_ONLINE_EXPERIMENT/MALES_CFD-WM-009-014-F_ILL10_C4.png,./IMAGES_ONLINE_EXPERIMENT/MALES_CFD-WM-013-019-F_ILL10_C1.png,./IMAGES_ONLINE_EXPERIMENT/MALES_CFD-WM-018-005-HC_ILL10_C3.png,./IMAGES_ONLINE_EXPERIMENT/MALES_CFD-WM-040-023-HO_ILL10_C6.png,./IMAGES_ONLINE_EXPERIMENT/MALES_CFD-WM-014-008-HC_ILL10_C5.png,./IMAGES_ONLINE_EXPERIMENT/MALES_CFD-WM-040-007-A_ILL9.png,,
,,,,,21438,001,F,26,2026-03-24_11h26.34.511,RUN_BETA,2026.1.0,Linux x86_64,59.88023952,234.4842,234.9828,234.9878,237.3663,[-0.5563165523387767],[-0.22450461211027922],[1],[0],[0],[2.381099999994035],0,53,53,8,1,./IMAGES_ONLINE_EXPERIMENT/MALES_CFD-WM-031-045-A_ILL10_C5.png,./IMAGES_ONLINE_EXPERIMENT/MALES_CFD-WM-014-004-HO_ILL10_C1.png,./IMAGES_ONLINE_EXPERIMENT/MALES_CFD-WM-039-018-N_ILL10_C2.png,./IMAGES_ONLINE_EXPERIMENT/MALES_CFD-WM-028-019-F_ILL10_C6.png,./IMAGES_ONLINE_EXPERIMENT/MALES_CFD-WM-041-021-N_ILL10_C4.png,./IMAGES_ONLINE_EXPERIMENT/MALES_CFD-WM-023-004-HO_ILL10_C3.png,./IMAGES_ONLINE_EXPERIMENT/MALES_CFD-WM-028-005-HC_ILL10.png,,
,,,,,21438,001,F,26,2026-03-24_11h26.34.511,RUN_BETA,2026.1.0,Linux x86_64,59.88023952,237.3686,237.8658,237.8716,241.0275,[-0.4739111441153067],[0.26604413986206055],[1],[0],[0],[3.159099999993998],0,54,54,34,1,./IMAGES_ONLINE_EXPERIMENT/MALES_CFD-WM-021-004-HO_ILL7_C6.png,./IMAGES_ONLINE_EXPERIMENT/MALES_CFD-WM-040-022-N_ILL7_C1.png,./IMAGES_ONLINE_EXPERIMENT/MALES_CFD-WM-003-002-N_ILL7_C5.png,./IMAGES_ONLINE_EXPERIMENT/MALES_CFD-WM-018-007-A_ILL7_C2.png,./IMAGES_ONLINE_EXPERIMENT/MALES_CFD-WM-014-024-F_ILL7_C3.png,./IMAGES_ONLINE_EXPERIMENT/MALES_CFD-WM-035-018-A_ILL7_C4.png,./IMAGES_ONLINE_EXPERIMENT/MALES_CFD-WM-021-001-N_ILL7.png,,
,,,,,21438,001,F,26,2026-03-24_11h26.34.511,RUN_BETA,2026.1.0,Linux x86_64,59.88023952,241.0287,241.5274,241.5319,243.9251,[-0.47785179703323927],[0.15805622383400245],[1],[0],[0],[2.395599999994033],0,55,55,97,1,./IMAGES_ONLINE_EXPERIMENT/FEMALE_CFD-WF-029-026-A_ILL10_C1.png,./IMAGES_ONLINE_EXPERIMENT/FEMALE_CFD-WF-030-002-N_ILL10_C5.png,./IMAGES_ONLINE_EXPERIMENT/FEMALE_CFD-WF-035-019-F_ILL10_C2.png,./IMAGES_ONLINE_EXPERIMENT/FEMALE_CFD-WF-014-009-HC_ILL10_C4.png,./IMAGES_ONLINE_EXPERIMENT/FEMALE_CFD-WF-012-017-F_ILL10_C6.png,./IMAGES_ONLINE_EXPERIMENT/FEMALE_CFD-WF-037-016-A_ILL10_C3.png,./IMAGES_ONLINE_EXPERIMENT/FEMALE_CFD-WF-012-004-HC_ILL9.png,,
,,,,,21438,001,F,26,2026-03-24_11h26.34.511,RUN_BETA,2026.1.0,Linux x86_64,59.88023952,243.9265,244.4249,244.4287,247.8219,[0.5085788302951388],[0.1896997027926975],[1],[0],[0],[3.395099999994045],0,56,56,116,1,./IMAGES_ONLINE_EXPERIMENT/MALES_CFD-WM-013-001-N_ILL10_C2.png,./IMAGES_ONLINE_EXPERIMENT/MALES_CFD-WM-038-011-A_ILL10_C6.png,./IMAGES_ONLINE_EXPERIMENT/MALES_CFD-WM-003-006-HC_ILL10_C5.png,./IMAGES_ONLINE_EXPERIMENT/MALES_CFD-WM-036-031-N_ILL10_C4.png,./IMAGES_ONLINE_EXPERIMENT/MALES_CFD-WM-006-010-HO_ILL10_C1.png,./IMAGES_ONLINE_EXPERIMENT/MALES_CFD-WM-022-012-F_ILL10_C3.png,./IMAGES_ONLINE_EXPERIMENT/MALES_CFD-WM-038-007-HC_ILL10.png,,
,,,,,21438,001,F,26,2026-03-24_11h26.34.511,RUN_BETA,2026.1.0,Linux x86_64,59.88023952,247.8231,248.3216,248.3262,251.1035,[-0.011157071148907696],[-0.2287221837926794],[1],[0],[0],[2.7793999999761354],0,57,57,51,1,./IMAGES_ONLINE_EXPERIMENT/FEMALE_CFD-WF-022-007-HC_ILL10_C2.png,./IMAGES_ONLINE_EXPERIMENT/FEMALE_CFD-WF-030-003-HO_ILL10_C6.png,./IMAGES_ONLINE_EXPERIMENT/FEMALE_CFD-WF-024-003-N_ILL10_C1.png,./IMAGES_ONLINE_EXPERIMENT/FEMALE_CFD-WF-011-011-A_ILL10_C5.png,./IMAGES_ONLINE_EXPERIMENT/FEMALE_CFD-WF-039-008-HC_ILL10_C4.png,./IMAGES_ONLINE_EXPERIMENT/FEMALE_CFD-WF-031-005-HO_ILL10_C3.png,./IMAGES_ONLINE_EXPERIMENT/FEMALE_CFD-WF-030-002-N_ILL10.png,,
,,,,,21438,001,F,26,2026-03-24_11h26.34.511,RUN_BETA,2026.1.0,Linux x86_64,59.88023952,251.1056,251.6025,251.6058,254.334,[0.5449841817220052],[0.2733586099412706],[1],[0],[0],[2.729399999976124],0,58,58,82,1,./IMAGES_ONLINE_EXPERIMENT/MALES_CFD-WM-016-005-HC_ILL7_C3.png,./IMAGES_ONLINE_EXPERIMENT/MALES_CFD-WM-034-035-HO_ILL7_C1.png,./IMAGES_ONLINE_EXPERIMENT/MALES_CFD-WM-033-007-HO_ILL7_C6.png,./IMAGES_ONLINE_EXPERIMENT/MALES_CFD-WM-024-007-HC_ILL7_C2.png,./IMAGES_ONLINE_EXPERIMENT/MALES_CFD-WM-010-007-HC_ILL7_C4.png,./IMAGES_ONLINE_EXPERIMENT/MALES_CFD-WM-015-017-A_ILL7_C5.png,./IMAGES_ONLINE_EXPERIMENT/MALES_CFD-WM-033-025-N_ILL7.png,,
,,,,,21438,001,F,26,2026-03-24_11h26.34.511,RUN_BETA,2026.1.0,Linux x86_64,59.88023952,254.3353,254.8337,254.8373,258.8814,[0.4813215467664931],[-0.20524010834870515],[1],[0],[0],[4.045899999976143],0,59,59,105,1,./IMAGES_ONLINE_EXPERIMENT/MALES_CFD-WM-031-004-HO_ILL10_C3.png,./IMAGES_ONLINE_EXPERIMENT/MALES_CFD-WM-015-005-HO_ILL10_C5.png,./IMAGES_ONLINE_EXPERIMENT/MALES_CFD-WM-035-033-HO_ILL10_C4.png,./IMAGES_ONLINE_EXPERIMENT/MALES_CFD-WM-001-014-N_ILL10_C1.png,./IMAGES_ONLINE_EXPERIMENT/MALES_CFD-WM-004-011-A_ILL10_C6.png,./IMAGES_ONLINE_EXPERIMENT/MALES_CFD-WM-037-025-N_ILL10_C2.png,./IMAGES_ONLINE_EXPERIMENT/MALES_CFD-WM-004-010-N_ILL10.png,,
,,,,,21438,001,F,26,2026-03-24_11h26.34.511,RUN_BETA,2026.1.0,Linux x86_64,59.88023952,258.8835,259.3802,259.3853,262.41,[-0.5083957601476599],[0.20842248422128182],[1],[0],[0],[3.027600000023824],0,60,60,111,1,./IMAGES_ONLINE_EXPERIMENT/FEMALE_CFD-WF-029-018-F_ILL10_C6.png,./IMAGES_ONLINE_EXPERIMENT/FEMALE_CFD-WF-031-027-N_ILL10_C5.png,./IMAGES_ONLINE_EXPERIMENT/FEMALE_CFD-WF-039-044-F_ILL10_C2.png,./IMAGES_ONLINE_EXPERIMENT/FEMALE_CFD-WF-025-031-F_ILL10_C3.png,./IMAGES_ONLINE_EXPERIMENT/FEMALE_CFD-WF-007-029-A_ILL10_C4.png,./IMAGES_ONLINE_EXPERIMENT/FEMALE_CFD-WF-020-023-HO_ILL10_C1.png,./IMAGES_ONLINE_EXPERIMENT/FEMALE_CFD-WF-029-026-A_ILL10.png,,
,,,,,21438,001,F,26,2026-03-24_11h26.34.511,RUN_BETA,2026.1.0,Linux x86_64,59.88023952,262.4116,262.9114,262.9154,267.5056,[0.4403871606897425],[-0.16308558428729023],[1],[0],[0],[4.59230000001196],0,61,61,40,1,./IMAGES_ONLINE_EXPERIMENT/FEMALE_CFD-WF-026-002-N_ILL7_C3.png,./IMAGES_ONLINE_EXPERIMENT/FEMALE_CFD-WF-011-011-A_ILL7_C6.png,./IMAGES_ONLINE_EXPERIMENT/FEMALE_CFD-WF-021-016-HO_ILL7_C4.png,./IMAGES_ONLINE_EXPERIMENT/FEMALE_CFD-WF-013-015-A_ILL7_C2.png,./IMAGES_ONLINE_EXPERIMENT/FEMALE_CFD-WF-026-008-A_ILL7_C1.png,./IMAGES_ONLINE_EXPERIMENT/FEMALE_CFD-WF-009-006-HC_ILL7_C5.png,./IMAGES_ONLINE_EXPERIMENT/FEMALE_CFD-WF-011-016-F_ILL7.png,,
,,,,,21438,001,F,26,2026-03-24_11h26.34.511,RUN_BETA,2026.1.0,Linux x86_64,59.88023952,267.5064,268.0068,268.0081,271.5687,[-0.5784540882817021],[0.17433434945565682],[1],[0],[0],[3.561199999988105],0,62,62,74,1,./IMAGES_ONLINE_EXPERIMENT/FEMALE_CFD-WF-020-002-N_ILL10_C4.png,./IMAGES_ONLINE_EXPERIMENT/FEMALE_CFD-WF-003-004-HO_ILL10_C6.png,./IMAGES_ONLINE_EXPERIMENT/FEMALE_CFD-WF-022-019-HO_ILL10_C2.png,./IMAGES_ONLINE_EXPERIMENT/FEMALE_CFD-WF-012-007-HO_ILL10_C3.png,./IMAGES_ONLINE_EXPERIMENT/FEMALE_CFD-WF-039-025-N_ILL10_C5.png,./IMAGES_ONLINE_EXPERIMENT/FEMALE_CFD-WF-038-021-N_ILL10_C1.png,./IMAGES_ONLINE_EXPERIMENT/FEMALE_CFD-WF-003-014-A_ILL10.png,,
,,,,,21438,001,F,26,2026-03-24_11h26.34.511,RUN_BETA,2026.1.0,Linux x86_64,59.88023952,271.5693,272.0686,272.0699,274.9502,[0.42742962307400173],[0.19756087550410517],[1],[0],[0],[2.880800000011959],0,63,63,23,1,./IMAGES_ONLINE_EXPERIMENT/MALES_CFD-WM-004-002-F_ILL9_C1.png,./IMAGES_ONLINE_EXPERIMENT/MALES_CFD-WM-010-007-HC_ILL9_C5.png,./IMAGES_ONLINE_EXPERIMENT/MALES_CFD-WM-033-014-A_ILL9_C6.png,./IMAGES_ONLINE_EXPERIMENT/MALES_CFD-WM-021-004-HO_ILL9_C3.png,./IMAGES_ONLINE_EXPERIMENT/MALES_CFD-WM-028-007-HO_ILL9_C4.png,./IMAGES_ONLINE_EXPERIMENT/MALES_CFD-WM-026-006-HO_ILL9_C2.png,./IMAGES_ONLINE_EXPERIMENT/MALES_CFD-WM-033-006-HC_ILL9.png,,
,,,,,21438,001,F,26,2026-03-24_11h26.34.511,RUN_BETA,2026.1.0,Linux x86_64,59.88023952,274.9507,275.4498,275.4528,278.2472,[0.08167909692834925],[0.2142722694962113],[1],[0],[0],[2.795799999982137],0,64,64,100,1,./IMAGES_ONLINE_EXPERIMENT/FEMALE_CFD-WF-022-007-HC_ILL7_C5.png,./IMAGES_ONLINE_EXPERIMENT/FEMALE_CFD-WF-020-027-F_ILL7_C2.png,./IMAGES_ONLINE_EXPERIMENT/FEMALE_CFD-WF-033-031-A_ILL7_C1.png,./IMAGES_ONLINE_EXPERIMENT/FEMALE_CFD-WF-017-016-HC_ILL7_C4.png,./IMAGES_ONLINE_EXPERIMENT/FEMALE_CFD-WF-019-035-HO_ILL7_C6.png,./IMAGES_ONLINE_EXPERIMENT/FEMALE_CFD-WF-025-031-F_ILL7_C3.png,./IMAGES_ONLINE_EXPERIMENT/FEMALE_CFD-WF-019-024-F_ILL7.png,,
,,,,,21438,001,F,26,2026-03-24_11h26.34.511,RUN_BETA,2026.1.0,Linux x86_64,59.88023952,278.2486,278.7466,278.7513,281.3947,[0.0065174102783203125],[-0.27152026141131363],[1],[0],[0],[2.6457000000178823],0,65,65,39,1,./IMAGES_ONLINE_EXPERIMENT/FEMALE_CFD-WF-021-006-HC_ILL10_C3.png,./IMAGES_ONLINE_EXPERIMENT/FEMALE_CFD-WF-016-003-HO_ILL10_C2.png,./IMAGES_ONLINE_EXPERIMENT/FEMALE_CFD-WF-010-008-HC_ILL10_C1.png,./IMAGES_ONLINE_EXPERIMENT/FEMALE_CFD-WF-022-023-A_ILL10_C5.png,./IMAGES_ONLINE_EXPERIMENT/FEMALE_CFD-WF-015-027-F_ILL10_C6.png,./IMAGES_ONLINE_EXPERIMENT/FEMALE_CFD-WF-033-031-A_ILL10_C4.png,./IMAGES_ONLINE_EXPERIMENT/FEMALE_CFD-WF-015-014-A_ILL10.png,,
,,,,,21438,001,F,26,2026-03-24_11h26.34.511,RUN_BETA,2026.1.0,Linux x86_64,59.88023952,281.3977,281.8941,281.8981,284.8443,[-0.4529253288551613],[0.1808638749299226],[1],[0],[0],[2.9481999999880486],0,66,66,64,1,./IMAGES_ONLINE_EXPERIMENT/FEMALE_CFD-WF-018-017-N_ILL7_C5.png,./IMAGES_ONLINE_EXPERIMENT/FEMALE_CFD-WF-030-031-HC_ILL7_C2.png,./IMAGES_ONLINE_EXPERIMENT/FEMALE_CFD-WF-038-027-HC_ILL7_C1.png,./IMAGES_ONLINE_EXPERIMENT/FEMALE_CFD-WF-023-003-N_ILL7_C3.png,./IMAGES_ONLINE_EXPERIMENT/FEMALE_CFD-WF-035-033-A_ILL7_C6.png,./IMAGES_ONLINE_EXPERIMENT/FEMALE_CFD-WF-008-003-HO_ILL7_C4.png,./IMAGES_ONLINE_EXPERIMENT/FEMALE_CFD-WF-035-030-HC_ILL7.png,,
,,,,,21438,001,F,26,2026-03-24_11h26.34.511,RUN_BETA,2026.1.0,Linux x86_64,59.88023952,284.8467,285.3412,285.347,289.3547,[-0.007026389793113426],[0.18388645737259476],[1],[0],[0],[4.010499999999979],0,67,67,62,1,./IMAGES_ONLINE_EXPERIMENT/FEMALE_CFD-WF-016-017-HC_ILL10_C3.png,./IMAGES_ONLINE_EXPERIMENT/FEMALE_CFD-WF-011-006-HC_ILL10_C6.png,./IMAGES_ONLINE_EXPERIMENT/FEMALE_CFD-WF-010-014-A_ILL10_C2.png,./IMAGES_ONLINE_EXPERIMENT/FEMALE_CFD-WF-030-031-HC_ILL10_C1.png,./IMAGES_ONLINE_EXPERIMENT/FEMALE_CFD-WF-037-016-A_ILL10_C5.png,./IMAGES_ONLINE_EXPERIMENT/FEMALE_CFD-WF-027-007-HC_ILL10_C4.png,./IMAGES_ONLINE_EXPERIMENT/FEMALE_CFD-WF-011-002-N_ILL10.png,,
,,,,,21438,001,F,26,2026-03-24_11h26.34.511,RUN_BETA,2026.1.0,Linux x86_64,59.88023952,289.3572,289.856,289.8585,292.9025,[-0.4822960959540473],[-0.2178556654188368],[1],[0],[0],[3.0445000000000277],0,68,68,45,1,./IMAGES_ONLINE_EXPERIMENT/MALES_CFD-WM-013-001-N_ILL10_C5.png,./IMAGES_ONLINE_EXPERIMENT/MALES_CFD-WM-006-010-HO_ILL10_C1.png,./IMAGES_ONLINE_EXPERIMENT/MALES_CFD-WM-034-035-HO_ILL10_C4.png,./IMAGES_ONLINE_EXPERIMENT/MALES_CFD-WM-020-012-F_ILL10_C6.png,./IMAGES_ONLINE_EXPERIMENT/MALES_CFD-WM-036-018-A_ILL10_C2.png,./IMAGES_ONLINE_EXPERIMENT/MALES_CFD-WM-034-027-F_ILL10_C3.png,./IMAGES_ONLINE_EXPERIMENT/MALES_CFD-WM-020-001-N_ILL10.png,,
,,,,,21438,001,F,26,2026-03-24_11h26.34.511,RUN_BETA,2026.1.0,Linux x86_64,59.88023952,292.9044,293.4011,293.4063,295.5503,[0.007210554899992766],[-0.18512697573061343],[1],[0],[0],[2.1469999999999914],0,69,69,44,1,./IMAGES_ONLINE_EXPERIMENT/MALES_CFD-WM-029-020-F_ILL10_C1.png,./IMAGES_ONLINE_EXPERIMENT/MALES_CFD-WM-033-006-HC_ILL10_C4.png,./IMAGES_ONLINE_EXPERIMENT/MALES_CFD-WM-039-018-N_ILL10_C3.png,./IMAGES_ONLINE_EXPERIMENT/MALES_CFD-WM-028-003-N_ILL10_C2.png,./IMAGES_ONLINE_EXPERIMENT/MALES_CFD-WM-040-025-HC_ILL10_C6.png,./IMAGES_ONLINE_EXPERIMENT/MALES_CFD-WM-026-004-HC_ILL10_C5.png,./IMAGES_ONLINE_EXPERIMENT/MALES_CFD-WM-040-023-HO_ILL10.png,,
,,,,,21438,001,F,26,2026-03-24_11h26.34.511,RUN_BETA,2026.1.0,Linux x86_64,59.88023952,295.5525,296.0489,296.0545,299.4799,[-0.4547177067509404],[0.29727517233954537],[1],[0],[0],[3.428400000005979],0,70,70,19,1,./IMAGES_ONLINE_EXPERIMENT/MALES_CFD-WM-016-001-N_ILL10_C2.png,./IMAGES_ONLINE_EXPERIMENT/MALES_CFD-WM-037-060-A_ILL10_C3.png,./IMAGES_ONLINE_EXPERIMENT/MALES_CFD-WM-018-002-N_ILL10_C4.png,./IMAGES_ONLINE_EXPERIMENT/MALES_CFD-WM-034-035-HO_ILL10_C5.png,./IMAGES_ONLINE_EXPERIMENT/MALES_CFD-WM-033-007-HO_ILL10_C1.png,./IMAGES_ONLINE_EXPERIMENT/MALES_CFD-WM-011-011-A_ILL10_C6.png,./IMAGES_ONLINE_EXPERIMENT/MALES_CFD-WM-011-002-N_ILL9.png,,
,,,,,21438,001,F,26,2026-03-24_11h26.34.511,RUN_BETA,2026.1.0,Linux x86_64,59.88023952,299.4817,299.9792,299.9927,303.4958,[-0.44663863711886936],[0.16237774601689092],[1],[0],[0],[3.5147000000178537],0,71,71,73,1,./IMAGES_ONLINE_EXPERIMENT/FEMALE_CFD-WF-038-027-HC_ILL10_C6.png,./IMAGES_ONLINE_EXPERIMENT/FEMALE_CFD-WF-011-016-F_ILL10_C5.png,./IMAGES_ONLINE_EXPERIMENT/FEMALE_CFD-WF-027-021-HO_ILL10_C3.png,./IMAGES_ONLINE_EXPERIMENT/FEMALE_CFD-WF-019-032-HC_ILL10_C1.png,./IMAGES_ONLINE_EXPERIMENT/FEMALE_CFD-WF-011-002-N_ILL10_C4.png,./IMAGES_ONLINE_EXPERIMENT/FEMALE_CFD-WF-035-033-A_ILL10_C2.png,./IMAGES_ONLINE_EXPERIMENT/FEMALE_CFD-WF-038-030-A_ILL9.png,,
,,,,,21438,001,F,26,2026-03-24_11h26.34.511,RUN_BETA,2026.1.0,Linux x86_64,59.88023952,303.4986,303.9925,303.9992,307.5262,[-0.38476382361518013],[0.18828515653257016],[1],[0],[0],[3.5315999999940004],0,72,72,101,1,./IMAGES_ONLINE_EXPERIMENT/FEMALE_CFD-WF-014-012-A_ILL9_C1.png,./IMAGES_ONLINE_EXPERIMENT/FEMALE_CFD-WF-029-018-F_ILL9_C5.png,./IMAGES_ONLINE_EXPERIMENT/FEMALE_CFD-WF-019-032-HC_ILL9_C3.png,./IMAGES_ONLINE_EXPERIMENT/FEMALE_CFD-WF-039-005-HO_ILL9_C6.png,./IMAGES_ONLINE_EXPERIMENT/FEMALE_CFD-WF-012-004-HC_ILL9_C4.png,./IMAGES_ONLINE_EXPERIMENT/FEMALE_CFD-WF-001-003-N_ILL9_C2.png,./IMAGES_ONLINE_EXPERIMENT/FEMALE_CFD-WF-039-032-A_ILL9.png,,
,,,,,21438,001,F,26,2026-03-24_11h26.34.511,RUN_BETA,2026.1.0,Linux x86_64,59.88023952,307.5288,308.0225,308.0292,310.8723,[0.59911784419307],[0.32971871340716324],[1],[0],[0],[2.8480999999940764],0,73,73,21,1,./IMAGES_ONLINE_EXPERIMENT/MALES_CFD-WM-033-006-HC_ILL10_C3.png,./IMAGES_ONLINE_EXPERIMENT/MALES_CFD-WM-022-008-A_ILL10_C2.png,./IMAGES_ONLINE_EXPERIMENT/MALES_CFD-WM-002-009-N_ILL10_C6.png,./IMAGES_ONLINE_EXPERIMENT/MALES_CFD-WM-022-005-HO_ILL10_C5.png,./IMAGES_ONLINE_EXPERIMENT/MALES_CFD-WM-012-005-HO_ILL10_C4.png,./IMAGES_ONLINE_EXPERIMENT/MALES_CFD-WM-023-012-A_ILL10_C1.png,./IMAGES_ONLINE_EXPERIMENT/MALES_CFD-WM-002-007-HO_ILL10.png,,
,,,,,21438,001,F,26,2026-03-24_11h26.34.511,RUN_BETA,2026.1.0,Linux x86_64,59.88023952,310.8736,311.3702,311.3742,316.9656,[0.004323252925166377],[0.1728856122052228],[1],[0],[0],[5.593500000000006],0,74,74,24,1,./IMAGES_ONLINE_EXPERIMENT/FEMALE_CFD-WF-037-029-N_ILL10_C4.png,./IMAGES_ONLINE_EXPERIMENT/FEMALE_CFD-WF-035-027-HO_ILL10_C2.png,./IMAGES_ONLINE_EXPERIMENT/FEMALE_CFD-WF-034-028-F_ILL10_C3.png,./IMAGES_ONLINE_EXPERIMENT/FEMALE_CFD-WF-001-016-A_ILL10_C6.png,./IMAGES_ONLINE_EXPERIMENT/FEMALE_CFD-WF-037-016-A_ILL10_C5.png,./IMAGES_ONLINE_EXPERIMENT/FEMALE_CFD-WF-016-015-N_ILL10_C1.png,./IMAGES_ONLINE_EXPERIMENT/FEMALE_CFD-WF-001-009-HO_ILL7.png,,
,,,,,21438,001,F,26,2026-03-24_11h26.34.511,RUN_BETA,2026.1.0,Linux x86_64,59.88023952,316.9668,317.465,317.4712,322.2273,[-0.5338077545166016],[0.23920935171621818],[1],[0],[0],[4.759699999988072],0,75,75,93,1,./IMAGES_ONLINE_EXPERIMENT/MALES_CFD-WM-003-002-N_ILL10_C1.png,./IMAGES_ONLINE_EXPERIMENT/MALES_CFD-WM-033-014-A_ILL10_C5.png,./IMAGES_ONLINE_EXPERIMENT/MALES_CFD-WM-026-013-F_ILL10_C6.png,./IMAGES_ONLINE_EXPERIMENT/MALES_CFD-WM-023-015-F_ILL10_C2.png,./IMAGES_ONLINE_EXPERIMENT/MALES_CFD-WM-006-010-HO_ILL10_C3.png,./IMAGES_ONLINE_EXPERIMENT/MALES_CFD-WM-023-012-A_ILL10_C4.png,./IMAGES_ONLINE_EXPERIMENT/MALES_CFD-WM-026-004-HC_ILL10.png,,
,,,,,21438,001,F,26,2026-03-24_11h26.34.511,RUN_BETA,2026.1.0,Linux x86_64,59.88023952,322.2381,322.7274,322.7309,325.2247,[-0.4951340004249855],[-0.258520832768193],[1],[0],[0],[2.4956999999880622],0,76,76,75,1,./IMAGES_ONLINE_EXPERIMENT/FEMALE_CFD-WF-014-023-F_ILL10_C2.png,./IMAGES_ONLINE_EXPERIMENT/FEMALE_CFD-WF-028-023-N_ILL10_C6.png,./IMAGES_ONLINE_EXPERIMENT/FEMALE_CFD-WF-018-013-F_ILL10_C3.png,./IMAGES_ONLINE_EXPERIMENT/FEMALE_CFD-WF-010-008-HC_ILL10_C1.png,./IMAGES_ONLINE_EXPERIMENT/FEMALE_CFD-WF-009-006-HC_ILL10_C5.png,./IMAGES_ONLINE_EXPERIMENT/FEMALE_CFD-WF-021-018-A_ILL10_C4.png,./IMAGES_ONLINE_EXPERIMENT/FEMALE_CFD-WF-028-026-A_ILL10.png,,
,,,,,21438,001,F,26,2026-03-24_11h26.34.511,RUN_BETA,2026.1.0,Linux x86_64,59.88023952,325.2262,325.7249,325.7314,329.0722,[-0.4602698220147027],[0.2056187876948604],[1],[0],[0],[3.344800000011901],0,77,77,57,1,./IMAGES_ONLINE_EXPERIMENT/MALES_CFD-WM-025-002-N_ILL10_C4.png,./IMAGES_ONLINE_EXPERIMENT/MALES_CFD-WM-006-013-HC_ILL10_C2.png,./IMAGES_ONLINE_EXPERIMENT/MALES_CFD-WM-013-001-N_ILL10_C6.png,./IMAGES_ONLINE_EXPERIMENT/MALES_CFD-WM-014-002-N_ILL10_C5.png,./IMAGES_ONLINE_EXPERIMENT/MALES_CFD-WM-020-003-HO_ILL10_C1.png,./IMAGES_ONLINE_EXPERIMENT/MALES_CFD-WM-006-002-N_ILL10_C3.png,./IMAGES_ONLINE_EXPERIMENT/MALES_CFD-WM-013-015-A_ILL10.png,,
,,,,,21438,001,F,26,2026-03-24_11h26.34.511,RUN_BETA,2026.1.0,Linux x86_64,59.88023952,329.0744,329.5718,329.5771,333.0691,[0.031216939290364582],[-0.23949128610116463],[1],[0],[0],[3.494900000005998],0,78,78,2,1,./IMAGES_ONLINE_EXPERIMENT/FEMALE_CFD-WF-009-006-HC_ILL10_C1.png,./IMAGES_ONLINE_EXPERIMENT/FEMALE_CFD-WF-017-003-N_ILL10_C5.png,./IMAGES_ONLINE_EXPERIMENT/FEMALE_CFD-WF-029-026-A_ILL10_C2.png,./IMAGES_ONLINE_EXPERIMENT/FEMALE_CFD-WF-024-031-F_ILL10_C3.png,./IMAGES_ONLINE_EXPERIMENT/FEMALE_CFD-WF-026-008-A_ILL10_C6.png,./IMAGES_ONLINE_EXPERIMENT/FEMALE_CFD-WF-002-033-A_ILL10_C4.png,./IMAGES_ONLINE_EXPERIMENT/FEMALE_CFD-WF-026-002-N_ILL10.png,,
,,,,,21438,001,F,26,2026-03-24_11h26.34.511,RUN_BETA,2026.1.0,Linux x86_64,59.88023952,333.0706,333.5681,333.5711,338.7806,[-0.4172387652926975],[0.2252457406785753],[1],[0],[0],[5.211099999994076],0,79,79,58,1,./IMAGES_ONLINE_EXPERIMENT/MALES_CFD-WM-006-022-A_ILL7_C3.png,./IMAGES_ONLINE_EXPERIMENT/MALES_CFD-WM-016-002-HO_ILL7_C4.png,./IMAGES_ONLINE_EXPERIMENT/MALES_CFD-WM-029-014-A_ILL7_C2.png,./IMAGES_ONLINE_EXPERIMENT/MALES_CFD-WM-020-008-A_ILL7_C5.png,./IMAGES_ONLINE_EXPERIMENT/MALES_CFD-WM-035-036-HC_ILL7_C1.png,./IMAGES_ONLINE_EXPERIMENT/MALES_CFD-WM-036-047-F_ILL7_C6.png,./IMAGES_ONLINE_EXPERIMENT/MALES_CFD-WM-036-031-N_ILL7.png,,
,,,,,21438,001,F,26,2026-03-24_11h26.34.511,RUN_BETA,2026.1.0,Linux x86_64,59.88023952,338.7835,339.2803,339.2837,341.881,[-0.40474813955801503],[-0.3142822406910084],[1],[0],[0],[2.5989999999999895],0,80,80,30,1,./IMAGES_ONLINE_EXPERIMENT/MALES_CFD-WM-034-032-HC_ILL10_C1.png,./IMAGES_ONLINE_EXPERIMENT/MALES_CFD-WM-002-009-N_ILL10_C2.png,./IMAGES_ONLINE_EXPERIMENT/MALES_CFD-WM-025-022-F_ILL10_C4.png,./IMAGES_ONLINE_EXPERIMENT/MALES_CFD-WM-035-032-N_ILL10_C6.png,./IMAGES_ONLINE_EXPERIMENT/MALES_CFD-WM-014-008-HC_ILL10_C3.png,./IMAGES_ONLINE_EXPERIMENT/MALES_CFD-WM-014-002-N_ILL10_C5.png,./IMAGES_ONLINE_EXPERIMENT/MALES_CFD-WM-035-033-HO_ILL7.png,,
,,,,,21438,001,F,26,2026-03-24_11h26.34.511,RUN_BETA,2026.1.0,Linux x86_64,59.88023952,341.8858,342.3775,342.3826,344.4618,[-0.04866388108995226],[-0.25251953690140333],[1],[0],[0],[2.081199999988087],0,81,81,9,1,./IMAGES_ONLINE_EXPERIMENT/MALES_CFD-WM-038-003-N_ILL10_C2.png,./IMAGES_ONLINE_EXPERIMENT/MALES_CFD-WM-034-032-HC_ILL10_C3.png,./IMAGES_ONLINE_EXPERIMENT/MALES_CFD-WM-041-021-N_ILL10_C5.png,./IMAGES_ONLINE_EXPERIMENT/MALES_CFD-WM-041-009-A_ILL10_C4.png,./IMAGES_ONLINE_EXPERIMENT/MALES_CFD-WM-029-023-N_ILL10_C6.png,./IMAGES_ONLINE_EXPERIMENT/MALES_CFD-WM-003-003-HO_ILL10_C1.png,./IMAGES_ONLINE_EXPERIMENT/MALES_CFD-WM-029-029-HO_ILL10.png,,
,,,,,21438,001,F,26,2026-03-24_11h26.34.511,RUN_BETA,2026.1.0,Linux x86_64,59.88023952,344.4634,344.9591,344.9628,348.7257,[0.020508095070167823],[0.2486430980541088],[1],[0],[0],[3.765000000000043],0,82,82,108,1,./IMAGES_ONLINE_EXPERIMENT/FEMALE_CFD-WF-010-008-HC_ILL10_C5.png,./IMAGES_ONLINE_EXPERIMENT/FEMALE_CFD-WF-019-015-A_ILL10_C2.png,./IMAGES_ONLINE_EXPERIMENT/FEMALE_CFD-WF-008-016-F_ILL10_C1.png,./IMAGES_ONLINE_EXPERIMENT/FEMALE_CFD-WF-034-016-A_ILL10_C4.png,./IMAGES_ONLINE_EXPERIMENT/FEMALE_CFD-WF-001-027-F_ILL10_C3.png,./IMAGES_ONLINE_EXPERIMENT/FEMALE_CFD-WF-025-019-N_ILL10_C6.png,./IMAGES_ONLINE_EXPERIMENT/FEMALE_CFD-WF-025-015-A_ILL7.png,,
,,,,,21438,001,F,26,2026-03-24_11h26.34.511,RUN_BETA,2026.1.0,Linux x86_64,59.88023952,348.7286,349.2216,349.2244,352.4366,[0.0006592362015335648],[-0.15600995664243344],[1],[0],[0],[3.2136000000238596],0,83,83,0,1,./IMAGES_ONLINE_EXPERIMENT/FEMALE_CFD-WF-035-027-HO_ILL10_C2.png,./IMAGES_ONLINE_EXPERIMENT/FEMALE_CFD-WF-039-005-HO_ILL10_C4.png,./IMAGES_ONLINE_EXPERIMENT/FEMALE_CFD-WF-006-003-HC_ILL10_C5.png,./IMAGES_ONLINE_EXPERIMENT/FEMALE_CFD-WF-010-013-F_ILL10_C3.png,./IMAGES_ONLINE_EXPERIMENT/FEMALE_CFD-WF-033-035-F_ILL10_C1.png,./IMAGES_ONLINE_EXPERIMENT/FEMALE_CFD-WF-005-022-A_ILL10_C6.png,./IMAGES_ONLINE_EXPERIMENT/FEMALE_CFD-WF-005-016-HC_ILL7.png,,
,,,,,21438,001,F,26,2026-03-24_11h26.34.511,RUN_BETA,2026.1.0,Linux x86_64,59.88023952,352.4386,352.9358,352.9396,355.7536,[-0.4877128247861509],[-0.3042006316008391],[1],[0],[0],[2.815999999999974],0,84,84,13,1,./IMAGES_ONLINE_EXPERIMENT/FEMALE_CFD-WF-006-003-HC_ILL10_C2.png,./IMAGES_ONLINE_EXPERIMENT/FEMALE_CFD-WF-008-003-HO_ILL10_C5.png,./IMAGES_ONLINE_EXPERIMENT/FEMALE_CFD-WF-027-021-HO_ILL10_C4.png,./IMAGES_ONLINE_EXPERIMENT/FEMALE_CFD-WF-014-012-A_ILL10_C6.png,./IMAGES_ONLINE_EXPERIMENT/FEMALE_CFD-WF-029-002-N_ILL10_C3.png,./IMAGES_ONLINE_EXPERIMENT/FEMALE_CFD-WF-037-024-F_ILL10_C1.png,./IMAGES_ONLINE_EXPERIMENT/FEMALE_CFD-WF-014-009-HC_ILL9.png,,
,,,,,21438,001,F,26,2026-03-24_11h26.34.511,RUN_BETA,2026.1.0,Linux x86_64,59.88023952,355.7561,356.2492,356.2524,359.5969,[0.012698350129304108],[0.17966591870343243],[1],[0],[0],[3.3450999999940336],0,85,85,4,1,./IMAGES_ONLINE_EXPERIMENT/FEMALE_CFD-WF-010-013-F_ILL7_C1.png,./IMAGES_ONLINE_EXPERIMENT/FEMALE_CFD-WF-019-035-HO_ILL7_C4.png,./IMAGES_ONLINE_EXPERIMENT/FEMALE_CFD-WF-021-018-A_ILL7_C6.png,./IMAGES_ONLINE_EXPERIMENT/FEMALE_CFD-WF-031-045-F_ILL7_C5.png,./IMAGES_ONLINE_EXPERIMENT/FEMALE_CFD-WF-023-013-A_ILL7_C2.png,./IMAGES_ONLINE_EXPERIMENT/FEMALE_CFD-WF-011-002-N_ILL7_C3.png,./IMAGES_ONLINE_EXPERIMENT/FEMALE_CFD-WF-021-016-HO_ILL7.png,,
,,,,,21438,001,F,26,2026-03-24_11h26.34.511,RUN_BETA,2026.1.0,Linux x86_64,59.88023952,359.5998,360.0962,360.1018,362.5942,[-0.04164356655544705],[-0.2814665193910952],[1],[0],[0],[2.4959000000059746],0,86,86,25,1,./IMAGES_ONLINE_EXPERIMENT/FEMALE_CFD-WF-007-003-HO_ILL10_C6.png,./IMAGES_ONLINE_EXPERIMENT/FEMALE_CFD-WF-003-004-HO_ILL10_C5.png,./IMAGES_ONLINE_EXPERIMENT/FEMALE_CFD-WF-003-003-N_ILL10_C1.png,./IMAGES_ONLINE_EXPERIMENT/FEMALE_CFD-WF-030-031-HC_ILL10_C4.png,./IMAGES_ONLINE_EXPERIMENT/FEMALE_CFD-WF-031-009-HC_ILL10_C3.png,./IMAGES_ONLINE_EXPERIMENT/FEMALE_CFD-WF-018-018-HO_ILL10_C2.png,./IMAGES_ONLINE_EXPERIMENT/FEMALE_CFD-WF-007-029-A_ILL9.png,,
,,,,,21438,001,F,26,2026-03-24_11h26.34.511,RUN_BETA,2026.1.0,Linux x86_64,59.88023952,362.5951,363.0942,363.0979,365.9281,[0.5528375131112558],[-0.23286543952094185],[1],[0],[0],[2.8319000000059873],0,87,87,118,1,./IMAGES_ONLINE_EXPERIMENT/MALES_CFD-WM-021-009-A_ILL7_C3.png,./IMAGES_ONLINE_EXPERIMENT/MALES_CFD-WM-034-027-F_ILL7_C2.png,./IMAGES_ONLINE_EXPERIMENT/MALES_CFD-WM-009-014-F_ILL7_C4.png,./IMAGES_ONLINE_EXPERIMENT/MALES_CFD-WM-029-029-HO_ILL7_C5.png,./IMAGES_ONLINE_EXPERIMENT/MALES_CFD-WM-034-032-HC_ILL7_C1.png,./IMAGES_ONLINE_EXPERIMENT/MALES_CFD-WM-039-004-HC_ILL7_C6.png,./IMAGES_ONLINE_EXPERIMENT/MALES_CFD-WM-039-028-F_ILL7.png,,
,,,,,21438,001,F,26,2026-03-24_11h26.34.511,RUN_BETA,2026.1.0,Linux x86_64,59.88023952,365.9304,366.4247,366.4295,370.8042,[0.019635306464301214],[-0.20876248677571616],[1],[0],[0],[4.377400000005991],0,88,88,109,1,./IMAGES_ONLINE_EXPERIMENT/FEMALE_CFD-WF-033-031-A_ILL10_C5.png,./IMAGES_ONLINE_EXPERIMENT/FEMALE_CFD-WF-034-028-F_ILL10_C4.png,./IMAGES_ONLINE_EXPERIMENT/FEMALE_CFD-WF-012-002-N_ILL10_C1.png,./IMAGES_ONLINE_EXPERIMENT/FEMALE_CFD-WF-039-005-HO_ILL10_C2.png,./IMAGES_ONLINE_EXPERIMENT/FEMALE_CFD-WF-015-023-HC_ILL10_C3.png,./IMAGES_ONLINE_EXPERIMENT/FEMALE_CFD-WF-031-045-F_ILL10_C6.png,./IMAGES_ONLINE_EXPERIMENT/FEMALE_CFD-WF-031-009-HC_ILL9.png,,
,,,,,21438,001,F,26,2026-03-24_11h26.34.511,RUN_BETA,2026.1.0,Linux x86_64,59.88023952,370.8051,371.3038,371.308,375.7002,[0.5376769171820747],[0.28504182674266676],[1],[0],[0],[4.394599999994057],0,89,89,12,1,./IMAGES_ONLINE_EXPERIMENT/FEMALE_CFD-WF-022-014-F_ILL10_C5.png,./IMAGES_ONLINE_EXPERIMENT/FEMALE_CFD-WF-026-008-A_ILL10_C1.png,./IMAGES_ONLINE_EXPERIMENT/FEMALE_CFD-WF-039-032-A_ILL10_C2.png,./IMAGES_ONLINE_EXPERIMENT/FEMALE_CFD-WF-034-028-F_ILL10_C4.png,./IMAGES_ONLINE_EXPERIMENT/FEMALE_CFD-WF-007-029-A_ILL10_C3.png,./IMAGES_ONLINE_EXPERIMENT/FEMALE_CFD-WF-029-021-HO_ILL10_C6.png,./IMAGES_ONLINE_EXPERIMENT/FEMALE_CFD-WF-029-023-HC_ILL7.png,,
,,,,,21438,001,F,26,2026-03-24_11h26.34.511,RUN_BETA,2026.1.0,Linux x86_64,59.88023952,375.7016,376.1998,376.2043,379.6302,[0.45776084617332174],[-0.2309178246392144],[1],[0],[0],[3.4284999999999854],0,90,90,88,1,./IMAGES_ONLINE_EXPERIMENT/FEMALE_CFD-WF-027-021-HO_ILL7_C4.png,./IMAGES_ONLINE_EXPERIMENT/FEMALE_CFD-WF-039-005-HO_ILL7_C5.png,./IMAGES_ONLINE_EXPERIMENT/FEMALE_CFD-WF-023-020-HO_ILL7_C3.png,./IMAGES_ONLINE_EXPERIMENT/FEMALE_CFD-WF-005-013-HO_ILL7_C2.png,./IMAGES_ONLINE_EXPERIMENT/FEMALE_CFD-WF-016-021-A_ILL7_C1.png,./IMAGES_ONLINE_EXPERIMENT/FEMALE_CFD-WF-009-004-HO_ILL7_C6.png,./IMAGES_ONLINE_EXPERIMENT/FEMALE_CFD-WF-009-006-HC_ILL7.png,,
,,,,,21438,001,F,26,2026-03-24_11h26.34.511,RUN_BETA,2026.1.0,Linux x86_64,59.88023952,379.6316,380.13,380.1359,383.4778,[0.04383369728370949],[-0.29861732765480326],[1],[0],[0],[3.3446000000238314],0,91,91,6,1,./IMAGES_ONLINE_EXPERIMENT/MALES_CFD-WM-041-023-HC_ILL10_C6.png,./IMAGES_ONLINE_EXPERIMENT/MALES_CFD-WM-029-020-F_ILL10_C4.png,./IMAGES_ONLINE_EXPERIMENT/MALES_CFD-WM-037-025-N_ILL10_C2.png,./IMAGES_ONLINE_EXPERIMENT/MALES_CFD-WM-009-002-N_ILL10_C1.png,./IMAGES_ONLINE_EXPERIMENT/MALES_CFD-WM-016-008-A_ILL10_C3.png,./IMAGES_ONLINE_EXPERIMENT/MALES_CFD-WM-032-001-N_ILL10_C5.png,./IMAGES_ONLINE_EXPERIMENT/MALES_CFD-WM-041-009-A_ILL7.png,,
,,,,,21438,001,F,26,2026-03-24_11h26.34.511,RUN_BETA,2026.1.0,Linux x86_64,59.88023952,383.4795,383.9767,383.9802,387.2081,[0.11544474848994503],[0.24628365481341327],[1],[0],[0],[3.22950000000003],0,92,92,14,1,./IMAGES_ONLINE_EXPERIMENT/FEMALE_CFD-WF-029-018-F_ILL10_C3.png,./IMAGES_ONLINE_EXPERIMENT/FEMALE_CFD-WF-034-033-HO_ILL10_C6.png,./IMAGES_ONLINE_EXPERIMENT/FEMALE_CFD-WF-028-026-A_ILL10_C1.png,./IMAGES_ONLINE_EXPERIMENT/FEMALE_CFD-WF-025-031-F_ILL10_C4.png,./IMAGES_ONLINE_EXPERIMENT/FEMALE_CFD-WF-030-031-HC_ILL10_C5.png,./IMAGES_ONLINE_EXPERIMENT/FEMALE_CFD-WF-005-027-F_ILL10_C2.png,./IMAGES_ONLINE_EXPERIMENT/FEMALE_CFD-WF-034-028-F_ILL10.png,,
,,,,,21438,001,F,26,2026-03-24_11h26.34.511,RUN_BETA,2026.1.0,Linux x86_64,59.88023952,387.2102,387.7074,387.7114,390.6874,[-0.5398637630321361],[-0.20149506462944877],[1],[0],[0],[2.9780000000000086],0,93,93,78,1,./IMAGES_ONLINE_EXPERIMENT/MALES_CFD-WM-024-019-F_ILL10_C1.png,./IMAGES_ONLINE_EXPERIMENT/MALES_CFD-WM-028-005-HC_ILL10_C4.png,./IMAGES_ONLINE_EXPERIMENT/MALES_CFD-WM-039-018-N_ILL10_C5.png,./IMAGES_ONLINE_EXPERIMENT/MALES_CFD-WM-025-022-F_ILL10_C6.png,./IMAGES_ONLINE_EXPERIMENT/MALES_CFD-WM-003-003-HO_ILL10_C3.png,./IMAGES_ONLINE_EXPERIMENT/MALES_CFD-WM-001-011-HO_ILL10_C2.png,./IMAGES_ONLINE_EXPERIMENT/MALES_CFD-WM-025-008-A_ILL7.png,,
,,,,,21438,001,F,26,2026-03-24_11h26.34.511,RUN_BETA,2026.1.0,Linux x86_64,59.88023952,390.6879,391.1871,391.1884,395.3504,[-0.41111974362973813],[-0.18045566700122975],[1],[0],[0],[4.162600000023815],0,94,94,17,1,./IMAGES_ONLINE_EXPERIMENT/FEMALE_CFD-WF-016-017-HC_ILL9_C5.png,./IMAGES_ONLINE_EXPERIMENT/FEMALE_CFD-WF-019-032-HC_ILL9_C6.png,./IMAGES_ONLINE_EXPERIMENT/FEMALE_CFD-WF-021-002-N_ILL9_C2.png,./IMAGES_ONLINE_EXPERIMENT/FEMALE_CFD-WF-036-023-N_ILL9_C4.png,./IMAGES_ONLINE_EXPERIMENT/FEMALE_CFD-WF-039-044-F_ILL9_C1.png,./IMAGES_ONLINE_EXPERIMENT/FEMALE_CFD-WF-018-017-N_ILL9_C3.png,./IMAGES_ONLINE_EXPERIMENT/FEMALE_CFD-WF-019-024-F_ILL9.png,,
,,,,,21438,001,F,26,2026-03-24_11h26.34.511,RUN_BETA,2026.1.0,Linux x86_64,59.88023952,395.3512,395.8448,395.8498,399.0644,[-0.4250478038081416],[-0.2061481475830078],[1],[0],[0],[3.2170999999940477],0,95,95,89,1,./IMAGES_ONLINE_EXPERIMENT/FEMALE_CFD-WF-007-003-HO_ILL9_C4.png,./IMAGES_ONLINE_EXPERIMENT/FEMALE_CFD-WF-023-020-HO_ILL9_C2.png,./IMAGES_ONLINE_EXPERIMENT/FEMALE_CFD-WF-029-018-F_ILL9_C5.png,./IMAGES_ONLINE_EXPERIMENT/FEMALE_CFD-WF-015-014-A_ILL9_C6.png,./IMAGES_ONLINE_EXPERIMENT/FEMALE_CFD-WF-011-006-HC_ILL9_C1.png,./IMAGES_ONLINE_EXPERIMENT/FEMALE_CFD-WF-001-009-HO_ILL9_C3.png,./IMAGES_ONLINE_EXPERIMENT/FEMALE_CFD-WF-015-022-HO_ILL9.png,,
,,,,,21438,001,F,26,2026-03-24_11h26.34.511,RUN_BETA,2026.1.0,Linux x86_64,59.88023952,399.0652,399.5641,399.5684,402.6633,[0.030040529039171007],[0.16116195254855686],[1],[0],[0],[3.09699999999998],0,96,96,85,1,./IMAGES_ONLINE_EXPERIMENT/FEMALE_CFD-WF-007-001-N_ILL10_C2.png,./IMAGES_ONLINE_EXPERIMENT/FEMALE_CFD-WF-025-031-F_ILL10_C6.png,./IMAGES_ONLINE_EXPERIMENT/FEMALE_CFD-WF-014-004-HO_ILL10_C3.png,./IMAGES_ONLINE_EXPERIMENT/FEMALE_CFD-WF-019-032-HC_ILL10_C1.png,./IMAGES_ONLINE_EXPERIMENT/FEMALE_CFD-WF-013-015-A_ILL10_C5.png,./IMAGES_ONLINE_EXPERIMENT/FEMALE_CFD-WF-002-008-HC_ILL10_C4.png,./IMAGES_ONLINE_EXPERIMENT/FEMALE_CFD-WF-025-023-HC_ILL9.png,,
,,,,,21438,001,F,26,2026-03-24_11h26.34.511,RUN_BETA,2026.1.0,Linux x86_64,59.88023952,402.6653,403.1611,403.1631,405.9939,[0.018628367671260127],[0.1892827351888021],[1],[0],[0],[2.8314000000059423],0,97,97,37,1,./IMAGES_ONLINE_EXPERIMENT/FEMALE_CFD-WF-016-024-F_ILL10_C3.png,./IMAGES_ONLINE_EXPERIMENT/FEMALE_CFD-WF-037-016-A_ILL10_C1.png,./IMAGES_ONLINE_EXPERIMENT/FEMALE_CFD-WF-034-061-HC_ILL10_C4.png,./IMAGES_ONLINE_EXPERIMENT/FEMALE_CFD-WF-017-016-HC_ILL10_C5.png,./IMAGES_ONLINE_EXPERIMENT/FEMALE_CFD-WF-029-018-F_ILL10_C2.png,./IMAGES_ONLINE_EXPERIMENT/FEMALE_CFD-WF-026-008-A_ILL10_C6.png,./IMAGES_ONLINE_EXPERIMENT/FEMALE_CFD-WF-026-018-HC_ILL9.png,,
,,,,,21438,001,F,26,2026-03-24_11h26.34.511,RUN_BETA,2026.1.0,Linux x86_64,59.88023952,405.9954,406.4916,406.4942,409.7223,[-0.5623228638260452],[0.1632558681346752],[1],[0],[0],[3.2292999999821177],0,98,98,55,1,./IMAGES_ONLINE_EXPERIMENT/MALES_CFD-WM-003-006-HC_ILL10_C6.png,./IMAGES_ONLINE_EXPERIMENT/MALES_CFD-WM-018-005-HC_ILL10_C1.png,./IMAGES_ONLINE_EXPERIMENT/MALES_CFD-WM-011-006-HC_ILL10_C2.png,./IMAGES_ONLINE_EXPERIMENT/MALES_CFD-WM-018-007-A_ILL10_C3.png,./IMAGES_ONLINE_EXPERIMENT/MALES_CFD-WM-038-018-F_ILL10_C5.png,./IMAGES_ONLINE_EXPERIMENT/MALES_CFD-WM-009-009-A_ILL10_C4.png,./IMAGES_ONLINE_EXPERIMENT/MALES_CFD-WM-003-003-HO_ILL9.png,,
,,,,,21438,001,F,26,2026-03-24_11h26.34.511,RUN_BETA,2026.1.0,Linux x86_64,59.88023952,409.7237,410.2221,410.2258,414.5517,[-0.43070704848678026],[0.18736853422941985],[1],[0],[0],[4.3275999999940495],0,99,99,79,1,./IMAGES_ONLINE_EXPERIMENT/MALES_CFD-WM-020-008-A_ILL10_C6.png,./IMAGES_ONLINE_EXPERIMENT/MALES_CFD-WM-019-017-F_ILL10_C3.png,./IMAGES_ONLINE_EXPERIMENT/MALES_CFD-WM-032-001-N_ILL10_C2.png,./IMAGES_ONLINE_EXPERIMENT/MALES_CFD-WM-019-003-N_ILL10_C5.png,./IMAGES_ONLINE_EXPERIMENT/MALES_CFD-WM-001-007-HC_ILL10_C4.png,./IMAGES_ONLINE_EXPERIMENT/MALES_CFD-WM-032-021-F_ILL10_C1.png,./IMAGES_ONLINE_EXPERIMENT/MALES_CFD-WM-020-001-N_ILL9.png,,
,,,,,21438,001,F,26,2026-03-24_11h26.34.511,RUN_BETA,2026.1.0,Linux x86_64,59.88023952,414.5529,415.0455,415.0517,417.4679,[-0.0054573482937282985],[0.17672789538348163],[1],[0],[0],[2.4189000000059764],0,100,100,92,1,./IMAGES_ONLINE_EXPERIMENT/MALES_CFD-WM-010-004-HO_ILL10_C5.png,./IMAGES_ONLINE_EXPERIMENT/MALES_CFD-WM-036-034-HO_ILL10_C3.png,./IMAGES_ONLINE_EXPERIMENT/MALES_CFD-WM-038-011-A_ILL10_C6.png,./IMAGES_ONLINE_EXPERIMENT/MALES_CFD-WM-023-007-HC_ILL10_C4.png,./IMAGES_ONLINE_EXPERIMENT/MALES_CFD-WM-023-015-F_ILL10_C2.png,./IMAGES_ONLINE_EXPERIMENT/MALES_CFD-WM-002-008-HC_ILL10_C1.png,./IMAGES_ONLINE_EXPERIMENT/MALES_CFD-WM-038-007-HC_ILL10.png,,
,,,,,21438,001,F,26,2026-03-24_11h26.34.511,RUN_BETA,2026.1.0,Linux x86_64,59.88023952,417.4694,417.9655,417.967,420.1819,[-0.030780439023618347],[-0.2697419767026548],[1],[0],[0],[2.2154000000060137],0,101,101,35,1,./IMAGES_ONLINE_EXPERIMENT/MALES_CFD-WM-006-022-A_ILL9_C2.png,./IMAGES_ONLINE_EXPERIMENT/MALES_CFD-WM-013-015-A_ILL9_C3.png,./IMAGES_ONLINE_EXPERIMENT/MALES_CFD-WM-001-011-HO_ILL9_C5.png,./IMAGES_ONLINE_EXPERIMENT/MALES_CFD-WM-023-004-HO_ILL9_C1.png,./IMAGES_ONLINE_EXPERIMENT/MALES_CFD-WM-020-005-HC_ILL9_C6.png,./IMAGES_ONLINE_EXPERIMENT/MALES_CFD-WM-029-020-F_ILL9_C4.png,./IMAGES_ONLINE_EXPERIMENT/MALES_CFD-WM-020-012-F_ILL9.png,,
,,,,,21438,001,F,26,2026-03-24_11h26.34.511,RUN_BETA,2026.1.0,Linux x86_64,59.88023952,420.1832,420.6812,420.6847,423.4111,[-0.4320139355129666],[0.17655369087501807],[1],[0],[0],[2.7279000000059455],0,102,102,112,1,./IMAGES_ONLINE_EXPERIMENT/FEMALE_CFD-WF-017-012-F_ILL7_C6.png,./IMAGES_ONLINE_EXPERIMENT/FEMALE_CFD-WF-029-023-HC_ILL7_C1.png,./IMAGES_ONLINE_EXPERIMENT/FEMALE_CFD-WF-018-017-N_ILL7_C5.png,./IMAGES_ONLINE_EXPERIMENT/FEMALE_CFD-WF-035-024-N_ILL7_C2.png,./IMAGES_ONLINE_EXPERIMENT/FEMALE_CFD-WF-005-010-N_ILL7_C4.png,./IMAGES_ONLINE_EXPERIMENT/FEMALE_CFD-WF-034-033-HO_ILL7_C3.png,./IMAGES_ONLINE_EXPERIMENT/FEMALE_CFD-WF-017-023-A_ILL7.png,,
,,,,,21438,001,F,26,2026-03-24_11h26.34.511,RUN_BETA,2026.1.0,Linux x86_64,59.88023952,423.4128,423.9107,423.9161,427.8744,[-0.5408434338039823],[-0.23479920846444588],[1],[0],[0],[3.9615999999940072],0,103,103,5,1,./IMAGES_ONLINE_EXPERIMENT/FEMALE_CFD-WF-007-003-HO_ILL9_C5.png,./IMAGES_ONLINE_EXPERIMENT/FEMALE_CFD-WF-022-019-HO_ILL9_C3.png,./IMAGES_ONLINE_EXPERIMENT/FEMALE_CFD-WF-002-004-N_ILL9_C2.png,./IMAGES_ONLINE_EXPERIMENT/FEMALE_CFD-WF-025-031-F_ILL9_C4.png,./IMAGES_ONLINE_EXPERIMENT/FEMALE_CFD-WF-003-004-HO_ILL9_C1.png,./IMAGES_ONLINE_EXPERIMENT/FEMALE_CFD-WF-036-023-N_ILL9_C6.png,./IMAGES_ONLINE_EXPERIMENT/FEMALE_CFD-WF-036-015-A_ILL9.png,,
,,,,,21438,001,F,26,2026-03-24_11h26.34.511,RUN_BETA,2026.1.0,Linux x86_64,59.88023952,427.876,428.3738,428.379,431.2424,[0.4837599860297309],[0.21688240545767326],[1],[0],[0],[2.8658999999761363],0,104,104,50,1,./IMAGES_ONLINE_EXPERIMENT/FEMALE_CFD-WF-033-031-A_ILL10_C1.png,./IMAGES_ONLINE_EXPERIMENT/FEMALE_CFD-WF-029-023-HC_ILL10_C4.png,./IMAGES_ONLINE_EXPERIMENT/FEMALE_CFD-WF-003-004-HO_ILL10_C6.png,./IMAGES_ONLINE_EXPERIMENT/FEMALE_CFD-WF-006-011-F_ILL10_C3.png,./IMAGES_ONLINE_EXPERIMENT/FEMALE_CFD-WF-022-017-N_ILL10_C5.png,./IMAGES_ONLINE_EXPERIMENT/FEMALE_CFD-WF-029-002-N_ILL10_C2.png,./IMAGES_ONLINE_EXPERIMENT/FEMALE_CFD-WF-003-007-HC_ILL10.png,,
,,,,,21438,001,F,26,2026-03-24_11h26.34.511,RUN_BETA,2026.1.0,Linux x86_64,59.88023952,431.245,431.7375,431.7415,435.0023,[0.5285022876880787],[-0.21700364572030525],[1],[0],[0],[3.2625000000000455],0,105,105,10,1,./IMAGES_ONLINE_EXPERIMENT/MALES_CFD-WM-026-001-N_ILL7_C3.png,./IMAGES_ONLINE_EXPERIMENT/MALES_CFD-WM-018-005-HC_ILL7_C5.png,./IMAGES_ONLINE_EXPERIMENT/MALES_CFD-WM-039-004-HC_ILL7_C1.png,./IMAGES_ONLINE_EXPERIMENT/MALES_CFD-WM-032-004-HO_ILL7_C2.png,./IMAGES_ONLINE_EXPERIMENT/MALES_CFD-WM-013-008-HC_ILL7_C4.png,./IMAGES_ONLINE_EXPERIMENT/MALES_CFD-WM-009-014-F_ILL7_C6.png,./IMAGES_ONLINE_EXPERIMENT/MALES_CFD-WM-009-002-N_ILL7.png,,
,,,,,21438,001,F,26,2026-03-24_11h26.34.511,RUN_BETA,2026.1.0,Linux x86_64,59.88023952,435.0044,435.501,435.5034,439.4311,[0.008745758621780961],[0.2342710671601472],[1],[0],[0],[3.9285999999940486],0,106,106,106,1,./IMAGES_ONLINE_EXPERIMENT/MALES_CFD-WM-032-008-HC_ILL7_C3.png,./IMAGES_ONLINE_EXPERIMENT/MALES_CFD-WM-012-026-F_ILL7_C5.png,./IMAGES_ONLINE_EXPERIMENT/MALES_CFD-WM-013-006-HO_ILL7_C2.png,./IMAGES_ONLINE_EXPERIMENT/MALES_CFD-WM-014-004-HO_ILL7_C6.png,./IMAGES_ONLINE_EXPERIMENT/MALES_CFD-WM-041-009-A_ILL7_C1.png,./IMAGES_ONLINE_EXPERIMENT/MALES_CFD-WM-023-004-HO_ILL7_C4.png,./IMAGES_ONLINE_EXPERIMENT/MALES_CFD-WM-014-002-N_ILL7.png,,
,,,,,21438,001,F,26,2026-03-24_11h26.34.511,RUN_BETA,2026.1.0,Linux x86_64,59.88023952,439.4325,439.9311,439.9374,442.1959,[-0.45943016476101345],[-0.30022924917715565],[1],[0],[0],[2.26039999997613],0,107,107,3,1,./IMAGES_ONLINE_EXPERIMENT/FEMALE_CFD-WF-039-044-F_ILL10_C3.png,./IMAGES_ONLINE_EXPERIMENT/FEMALE_CFD-WF-020-002-N_ILL10_C1.png,./IMAGES_ONLINE_EXPERIMENT/FEMALE_CFD-WF-002-033-A_ILL10_C2.png,./IMAGES_ONLINE_EXPERIMENT/FEMALE_CFD-WF-034-006-N_ILL10_C6.png,./IMAGES_ONLINE_EXPERIMENT/FEMALE_CFD-WF-039-032-A_ILL10_C5.png,./IMAGES_ONLINE_EXPERIMENT/FEMALE_CFD-WF-007-029-A_ILL10_C4.png,./IMAGES_ONLINE_EXPERIMENT/FEMALE_CFD-WF-034-033-HO_ILL10.png,,
,,,,,21438,001,F,26,2026-03-24_11h26.34.511,RUN_BETA,2026.1.0,Linux x86_64,59.88023952,442.2031,442.6953,442.699,448.1404,[-0.036200488055193866],[-0.1927617390950521],[1],[0],[0],[5.443300000011959],0,108,108,76,1,./IMAGES_ONLINE_EXPERIMENT/FEMALE_CFD-WF-030-003-HO_ILL7_C1.png,./IMAGES_ONLINE_EXPERIMENT/FEMALE_CFD-WF-038-027-HC_ILL7_C2.png,./IMAGES_ONLINE_EXPERIMENT/FEMALE_CFD-WF-023-020-HO_ILL7_C4.png,./IMAGES_ONLINE_EXPERIMENT/FEMALE_CFD-WF-001-003-N_ILL7_C5.png,./IMAGES_ONLINE_EXPERIMENT/FEMALE_CFD-WF-021-002-N_ILL7_C6.png,./IMAGES_ONLINE_EXPERIMENT/FEMALE_CFD-WF-003-004-HO_ILL7_C3.png,./IMAGES_ONLINE_EXPERIMENT/FEMALE_CFD-WF-021-018-A_ILL7.png,,
,,,,,21438,001,F,26,2026-03-24_11h26.34.511,RUN_BETA,2026.1.0,Linux x86_64,59.88023952,448.1412,448.6404,448.6443,451.8598,[0.013135203608760127],[-0.23495462205674914],[1],[0],[0],[3.217200000017897],0,109,109,41,1,./IMAGES_ONLINE_EXPERIMENT/FEMALE_CFD-WF-003-007-HC_ILL9_C1.png,./IMAGES_ONLINE_EXPERIMENT/FEMALE_CFD-WF-013-015-A_ILL9_C5.png,./IMAGES_ONLINE_EXPERIMENT/FEMALE_CFD-WF-027-021-HO_ILL9_C2.png,./IMAGES_ONLINE_EXPERIMENT/FEMALE_CFD-WF-027-003-N_ILL9_C3.png,./IMAGES_ONLINE_EXPERIMENT/FEMALE_CFD-WF-021-013-F_ILL9_C6.png,./IMAGES_ONLINE_EXPERIMENT/FEMALE_CFD-WF-038-033-F_ILL9_C4.png,./IMAGES_ONLINE_EXPERIMENT/FEMALE_CFD-WF-021-006-HC_ILL9.png,,
,,,,,21438,001,F,26,2026-03-24_11h26.34.511,RUN_BETA,2026.1.0,Linux x86_64,59.88023952,451.8634,452.354,452.3574,455.7202,[-0.4264939272845233],[-0.24801607485170718],[1],[0],[0],[3.364500000000021],0,110,110,95,1,./IMAGES_ONLINE_EXPERIMENT/MALES_CFD-WM-031-003-N_ILL9_C1.png,./IMAGES_ONLINE_EXPERIMENT/MALES_CFD-WM-029-020-F_ILL9_C4.png,./IMAGES_ONLINE_EXPERIMENT/MALES_CFD-WM-025-019-HO_ILL9_C2.png,./IMAGES_ONLINE_EXPERIMENT/MALES_CFD-WM-038-018-F_ILL9_C6.png,./IMAGES_ONLINE_EXPERIMENT/MALES_CFD-WM-020-008-A_ILL9_C5.png,./IMAGES_ONLINE_EXPERIMENT/MALES_CFD-WM-010-016-A_ILL9_C3.png,./IMAGES_ONLINE_EXPERIMENT/MALES_CFD-WM-038-007-HC_ILL9.png,,
,,,,,21438,001,F,26,2026-03-24_11h26.34.511,RUN_BETA,2026.1.0,Linux x86_64,59.88023952,455.7212,456.2175,456.2211,460.2647,[-0.42140024679678456],[-0.24022893552426938],[1],[0],[0],[4.045099999994022],0,111,111,56,1,./IMAGES_ONLINE_EXPERIMENT/MALES_CFD-WM-031-003-N_ILL10_C6.png,./IMAGES_ONLINE_EXPERIMENT/MALES_CFD-WM-024-015-N_ILL10_C2.png,./IMAGES_ONLINE_EXPERIMENT/MALES_CFD-WM-025-019-HO_ILL10_C4.png,./IMAGES_ONLINE_EXPERIMENT/MALES_CFD-WM-024-019-F_ILL10_C1.png,./IMAGES_ONLINE_EXPERIMENT/MALES_CFD-WM-028-005-HC_ILL10_C5.png,./IMAGES_ONLINE_EXPERIMENT/MALES_CFD-WM-009-014-F_ILL10_C3.png,./IMAGES_ONLINE_EXPERIMENT/MALES_CFD-WM-031-032-F_ILL10.png,,
,,,,,21438,001,F,26,2026-03-24_11h26.34.511,RUN_BETA,2026.1.0,Linux x86_64,59.88023952,460.2664,460.7639,460.7676,463.5146,[0.04669691015172888],[-0.21590360005696616],[1],[0],[0],[2.748700000017948],0,112,112,38,1,./IMAGES_ONLINE_EXPERIMENT/FEMALE_CFD-WF-013-006-HO_ILL10_C4.png,./IMAGES_ONLINE_EXPERIMENT/FEMALE_CFD-WF-011-002-N_ILL10_C1.png,./IMAGES_ONLINE_EXPERIMENT/FEMALE_CFD-WF-003-007-HC_ILL10_C5.png,./IMAGES_ONLINE_EXPERIMENT/FEMALE_CFD-WF-028-025-HC_ILL10_C6.png,./IMAGES_ONLINE_EXPERIMENT/FEMALE_CFD-WF-025-031-F_ILL10_C2.png,./IMAGES_ONLINE_EXPERIMENT/FEMALE_CFD-WF-022-019-HO_ILL10_C3.png,./IMAGES_ONLINE_EXPERIMENT/FEMALE_CFD-WF-028-026-A_ILL10.png,,
,,,,,21438,001,F,26,2026-03-24_11h26.34.511,RUN_BETA,2026.1.0,Linux x86_64,59.88023952,463.5169,464.0113,464.0149,468.6916,[-0.03887247156213831],[0.16986497243245444],[1],[0],[0],[4.678200000017796],0,113,113,113,1,./IMAGES_ONLINE_EXPERIMENT/FEMALE_CFD-WF-010-014-A_ILL9_C1.png,./IMAGES_ONLINE_EXPERIMENT/FEMALE_CFD-WF-014-002-N_ILL9_C5.png,./IMAGES_ONLINE_EXPERIMENT/FEMALE_CFD-WF-025-031-F_ILL9_C4.png,./IMAGES_ONLINE_EXPERIMENT/FEMALE_CFD-WF-033-041-HC_ILL9_C2.png,./IMAGES_ONLINE_EXPERIMENT/FEMALE_CFD-WF-036-026-HO_ILL9_C6.png,./IMAGES_ONLINE_EXPERIMENT/FEMALE_CFD-WF-022-017-N_ILL9_C3.png,./IMAGES_ONLINE_EXPERIMENT/FEMALE_CFD-WF-036-030-HC_ILL9.png,,
,,,,,21438,001,F,26,2026-03-24_11h26.34.511,RUN_BETA,2026.1.0,Linux x86_64,59.88023952,468.6946,469.1904,469.1944,475.0022,[-0.5321738631637009],[0.26239871978759766],[1],[0],[0],[5.809800000011933],0,114,114,32,1,./IMAGES_ONLINE_EXPERIMENT/MALES_CFD-WM-003-006-HC_ILL10_C3.png,./IMAGES_ONLINE_EXPERIMENT/MALES_CFD-WM-011-002-N_ILL10_C5.png,./IMAGES_ONLINE_EXPERIMENT/MALES_CFD-WM-017-003-HC_ILL10_C4.png,./IMAGES_ONLINE_EXPERIMENT/MALES_CFD-WM-032-004-HO_ILL10_C6.png,./IMAGES_ONLINE_EXPERIMENT/MALES_CFD-WM-022-012-F_ILL10_C1.png,./IMAGES_ONLINE_EXPERIMENT/MALES_CFD-WM-021-001-N_ILL10_C2.png,./IMAGES_ONLINE_EXPERIMENT/MALES_CFD-WM-032-001-N_ILL10.png,,
,,,,,21438,001,F,26,2026-03-24_11h26.34.511,RUN_BETA,2026.1.0,Linux x86_64,59.88023952,475.0041,475.5026,475.5267,478.3322,[-0.4874739470305266],[-0.231890219229239],[1],[0],[0],[2.809900000005996],0,115,115,11,1,./IMAGES_ONLINE_EXPERIMENT/MALES_CFD-WM-031-045-A_ILL9_C4.png,./IMAGES_ONLINE_EXPERIMENT/MALES_CFD-WM-016-005-HC_ILL9_C3.png,./IMAGES_ONLINE_EXPERIMENT/MALES_CFD-WM-026-006-HO_ILL9_C6.png,./IMAGES_ONLINE_EXPERIMENT/MALES_CFD-WM-040-022-N_ILL9_C5.png,./IMAGES_ONLINE_EXPERIMENT/MALES_CFD-WM-041-009-A_ILL9_C1.png,./IMAGES_ONLINE_EXPERIMENT/MALES_CFD-WM-031-038-HC_ILL9_C2.png,./IMAGES_ONLINE_EXPERIMENT/MALES_CFD-WM-026-019-A_ILL9.png,,
,,,,,21438,001,F,26,2026-03-24_11h26.34.511,RUN_BETA,2026.1.0,Linux x86_64,59.88023952,478.3327,478.8322,478.8373,483.3455,[0.4610951741536458],[-0.21046299404568142],[1],[0],[0],[4.510799999982169],0,116,116,99,1,./IMAGES_ONLINE_EXPERIMENT/FEMALE_CFD-WF-010-013-F_ILL10_C1.png,./IMAGES_ONLINE_EXPERIMENT/FEMALE_CFD-WF-007-005-HC_ILL10_C2.png,./IMAGES_ONLINE_EXPERIMENT/FEMALE_CFD-WF-038-030-A_ILL10_C3.png,./IMAGES_ONLINE_EXPERIMENT/FEMALE_CFD-WF-020-012-A_ILL10_C4.png,./IMAGES_ONLINE_EXPERIMENT/FEMALE_CFD-WF-028-023-N_ILL10_C5.png,./IMAGES_ONLINE_EXPERIMENT/FEMALE_CFD-WF-015-006-N_ILL10_C6.png,./IMAGES_ONLINE_EXPERIMENT/FEMALE_CFD-WF-015-022-HO_ILL10.png,,
,,,,,21438,001,F,26,2026-03-24_11h26.34.511,RUN_BETA,2026.1.0,Linux x86_64,59.88023952,483.3476,483.8403,483.8457,486.5611,[0.5428896303530093],[0.19381124001962166],[1],[0],[0],[2.717999999999961],0,117,117,28,1,./IMAGES_ONLINE_EXPERIMENT/FEMALE_CFD-WF-011-016-F_ILL7_C4.png,./IMAGES_ONLINE_EXPERIMENT/FEMALE_CFD-WF-022-017-N_ILL7_C2.png,./IMAGES_ONLINE_EXPERIMENT/FEMALE_CFD-WF-006-006-HO_ILL7_C6.png,./IMAGES_ONLINE_EXPERIMENT/FEMALE_CFD-WF-025-031-F_ILL7_C5.png,./IMAGES_ONLINE_EXPERIMENT/FEMALE_CFD-WF-020-023-HO_ILL7_C1.png,./IMAGES_ONLINE_EXPERIMENT/FEMALE_CFD-WF-035-030-HC_ILL7_C3.png,./IMAGES_ONLINE_EXPERIMENT/FEMALE_CFD-WF-006-002-N_ILL7.png,,
,,,,,21438,001,F,26,2026-03-24_11h26.34.511,RUN_BETA,2026.1.0,Linux x86_64,59.88023952,486.5629,487.0591,487.0818,489.3403,[-0.49453244385895906],[-0.2293903915970414],[1],[0],[0],[2.261699999988082],0,118,118,22,1,./IMAGES_ONLINE_EXPERIMENT/MALES_CFD-WM-010-007-HC_ILL7_C1.png,./IMAGES_ONLINE_EXPERIMENT/MALES_CFD-WM-040-033-F_ILL7_C5.png,./IMAGES_ONLINE_EXPERIMENT/MALES_CFD-WM-003-006-HC_ILL7_C2.png,./IMAGES_ONLINE_EXPERIMENT/MALES_CFD-WM-039-018-N_ILL7_C6.png,./IMAGES_ONLINE_EXPERIMENT/MALES_CFD-WM-017-011-A_ILL7_C4.png,./IMAGES_ONLINE_EXPERIMENT/MALES_CFD-WM-023-015-F_ILL7_C3.png,./IMAGES_ONLINE_EXPERIMENT/MALES_CFD-WM-039-010-A_ILL7.png,,
,,,,,21438,001,F,26,2026-03-24_11h26.34.511,RUN_BETA,2026.1.0,Linux x86_64,59.88023952,489.3414,489.8399,489.844,493.0536,[-0.48102686140272355],[-0.17974281311035156],[1],[0],[0],[3.211599999994064],0,119,119,86,1,./IMAGES_ONLINE_EXPERIMENT/FEMALE_CFD-WF-039-005-HO_ILL10_C2.png,./IMAGES_ONLINE_EXPERIMENT/FEMALE_CFD-WF-038-023-HO_ILL10_C1.png,./IMAGES_ONLINE_EXPERIMENT/FEMALE_CFD-WF-039-032-A_ILL10_C4.png,./IMAGES_ONLINE_EXPERIMENT/FEMALE_CFD-WF-018-018-HO_ILL10_C3.png,./IMAGES_ONLINE_EXPERIMENT/FEMALE_CFD-WF-016-021-A_ILL10_C6.png,./IMAGES_ONLINE_EXPERIMENT/FEMALE_CFD-WF-015-022-HO_ILL10_C5.png,./IMAGES_ONLINE_EXPERIMENT/FEMALE_CFD-WF-016-024-F_ILL10.png,,
