instructions.started,instructions.stopped,key_resp.keys,key_resp.rt,key_resp.duration,participant,session,"please enter F(female), M(male), O(other)",please enter your age,date,expName,psychopyVersion,OS,frameRate,fixation.started,fixation.stopped,trial.started,trial.stopped,mouse.x,mouse.y,mouse.leftButton,mouse.midButton,mouse.rightButton,mouse.time,trials.thisRepN,trials.thisTrialN,trials.thisN,trials.thisIndex,trials.ran,COMP1,COMP2,COMP3,COMP4,COMP5,COMP6,TEST_FACE,ILLUMINANT_TEST,ILLUMINANT_LINEUP
114.7318,167.687,space,52.9339,,272633,001,M,29,2026-03-19_14h48.58.164,RUN_BETA,2026.1.0,MacIntel,59.88023952,,,,,,,,,,,,,,,,,,,,,,,,
,,,,,272633,001,M,29,2026-03-19_14h48.58.164,RUN_BETA,2026.1.0,MacIntel,59.88023952,167.6983,168.1872,168.1876,174.3401,[-0.4682329094175492],[0.23904063445537066],[1],[0],[0],[6.152500000000003],0,0,0,93,1,./IMAGES_ONLINE_EXPERIMENT/MALES_CFD-WM-003-002-N_ILL10_C1.png,./IMAGES_ONLINE_EXPERIMENT/MALES_CFD-WM-033-014-A_ILL10_C5.png,./IMAGES_ONLINE_EXPERIMENT/MALES_CFD-WM-026-013-F_ILL10_C6.png,./IMAGES_ONLINE_EXPERIMENT/MALES_CFD-WM-023-015-F_ILL10_C2.png,./IMAGES_ONLINE_EXPERIMENT/MALES_CFD-WM-006-010-HO_ILL10_C3.png,./IMAGES_ONLINE_EXPERIMENT/MALES_CFD-WM-023-012-A_ILL10_C4.png,./IMAGES_ONLINE_EXPERIMENT/MALES_CFD-WM-026-004-HC_ILL10.png,,
,,,,,272633,001,M,29,2026-03-19_14h48.58.164,RUN_BETA,2026.1.0,MacIntel,59.88023952,174.3404,174.8402,174.8406,180.6762,[-0.5623936270801816],[0.21694756996974282],[1],[0],[0],[5.835700000002959],0,1,1,74,1,./IMAGES_ONLINE_EXPERIMENT/FEMALE_CFD-WF-020-002-N_ILL10_C4.png,./IMAGES_ONLINE_EXPERIMENT/FEMALE_CFD-WF-003-004-HO_ILL10_C6.png,./IMAGES_ONLINE_EXPERIMENT/FEMALE_CFD-WF-022-019-HO_ILL10_C2.png,./IMAGES_ONLINE_EXPERIMENT/FEMALE_CFD-WF-012-007-HO_ILL10_C3.png,./IMAGES_ONLINE_EXPERIMENT/FEMALE_CFD-WF-039-025-N_ILL10_C5.png,./IMAGES_ONLINE_EXPERIMENT/FEMALE_CFD-WF-038-021-N_ILL10_C1.png,./IMAGES_ONLINE_EXPERIMENT/FEMALE_CFD-WF-003-014-A_ILL10.png,,
,,,,,272633,001,M,29,2026-03-19_14h48.58.164,RUN_BETA,2026.1.0,MacIntel,59.88023952,180.6764,181.1764,181.1768,187.1458,[0.008329590582450832],[-0.2275553139183056],[1],[0],[0],[5.969099999994029],0,2,2,87,1,./IMAGES_ONLINE_EXPERIMENT/FEMALE_CFD-WF-019-024-F_ILL10_C3.png,./IMAGES_ONLINE_EXPERIMENT/FEMALE_CFD-WF-024-010-HC_ILL10_C4.png,./IMAGES_ONLINE_EXPERIMENT/FEMALE_CFD-WF-001-010-HC_ILL10_C1.png,./IMAGES_ONLINE_EXPERIMENT/FEMALE_CFD-WF-029-026-A_ILL10_C5.png,./IMAGES_ONLINE_EXPERIMENT/FEMALE_CFD-WF-034-006-N_ILL10_C6.png,./IMAGES_ONLINE_EXPERIMENT/FEMALE_CFD-WF-022-023-A_ILL10_C2.png,./IMAGES_ONLINE_EXPERIMENT/FEMALE_CFD-WF-034-016-A_ILL10.png,,
,,,,,272633,001,M,29,2026-03-19_14h48.58.164,RUN_BETA,2026.1.0,MacIntel,59.88023952,187.1461,187.6464,187.6468,191.1979,[-0.4695507517019667],[0.27193350510590014],[1],[0],[0],[3.5510999999940225],0,3,3,42,1,./IMAGES_ONLINE_EXPERIMENT/MALES_CFD-WM-025-022-F_ILL10_C6.png,./IMAGES_ONLINE_EXPERIMENT/MALES_CFD-WM-021-001-N_ILL10_C1.png,./IMAGES_ONLINE_EXPERIMENT/MALES_CFD-WM-032-021-F_ILL10_C5.png,./IMAGES_ONLINE_EXPERIMENT/MALES_CFD-WM-004-005-HC_ILL10_C4.png,./IMAGES_ONLINE_EXPERIMENT/MALES_CFD-WM-026-006-HO_ILL10_C2.png,./IMAGES_ONLINE_EXPERIMENT/MALES_CFD-WM-028-029-A_ILL10_C3.png,./IMAGES_ONLINE_EXPERIMENT/MALES_CFD-WM-025-002-N_ILL7.png,,
,,,,,272633,001,M,29,2026-03-19_14h48.58.164,RUN_BETA,2026.1.0,MacIntel,59.88023952,191.1981,191.698,191.6983,194.3493,[0.07708490922844176],[-0.26787065052950076],[1],[0],[0],[2.650999999999982],0,4,4,119,1,./IMAGES_ONLINE_EXPERIMENT/MALES_CFD-WM-006-002-N_ILL9_C1.png,./IMAGES_ONLINE_EXPERIMENT/MALES_CFD-WM-033-025-N_ILL9_C5.png,./IMAGES_ONLINE_EXPERIMENT/MALES_CFD-WM-024-015-N_ILL9_C4.png,./IMAGES_ONLINE_EXPERIMENT/MALES_CFD-WM-010-016-A_ILL9_C3.png,./IMAGES_ONLINE_EXPERIMENT/MALES_CFD-WM-002-007-HO_ILL9_C6.png,./IMAGES_ONLINE_EXPERIMENT/MALES_CFD-WM-034-032-HC_ILL9_C2.png,./IMAGES_ONLINE_EXPERIMENT/MALES_CFD-WM-002-008-HC_ILL9.png,,
,,,,,272633,001,M,29,2026-03-19_14h48.58.164,RUN_BETA,2026.1.0,MacIntel,59.88023952,194.3495,194.8494,194.8497,200.1699,[-0.41422205937972767],[0.2653354292738275],[1],[0],[0],[5.320199999988063],0,5,5,81,1,./IMAGES_ONLINE_EXPERIMENT/MALES_CFD-WM-012-001-N_ILL10_C4.png,./IMAGES_ONLINE_EXPERIMENT/MALES_CFD-WM-012-005-HO_ILL10_C5.png,./IMAGES_ONLINE_EXPERIMENT/MALES_CFD-WM-028-007-HO_ILL10_C3.png,./IMAGES_ONLINE_EXPERIMENT/MALES_CFD-WM-010-020-F_ILL10_C6.png,./IMAGES_ONLINE_EXPERIMENT/MALES_CFD-WM-006-013-HC_ILL10_C2.png,./IMAGES_ONLINE_EXPERIMENT/MALES_CFD-WM-014-024-F_ILL10_C1.png,./IMAGES_ONLINE_EXPERIMENT/MALES_CFD-WM-010-016-A_ILL10.png,,
,,,,,272633,001,M,29,2026-03-19_14h48.58.164,RUN_BETA,2026.1.0,MacIntel,59.88023952,200.1701,200.6688,200.6691,204.5206,[-0.45050408944780634],[-0.16135294534795763],[1],[0],[0],[3.8516000000089434],0,6,6,3,1,./IMAGES_ONLINE_EXPERIMENT/FEMALE_CFD-WF-039-044-F_ILL10_C3.png,./IMAGES_ONLINE_EXPERIMENT/FEMALE_CFD-WF-020-002-N_ILL10_C1.png,./IMAGES_ONLINE_EXPERIMENT/FEMALE_CFD-WF-002-033-A_ILL10_C2.png,./IMAGES_ONLINE_EXPERIMENT/FEMALE_CFD-WF-034-006-N_ILL10_C6.png,./IMAGES_ONLINE_EXPERIMENT/FEMALE_CFD-WF-039-032-A_ILL10_C5.png,./IMAGES_ONLINE_EXPERIMENT/FEMALE_CFD-WF-007-029-A_ILL10_C4.png,./IMAGES_ONLINE_EXPERIMENT/FEMALE_CFD-WF-034-033-HO_ILL10.png,,
,,,,,272633,001,M,29,2026-03-19_14h48.58.164,RUN_BETA,2026.1.0,MacIntel,59.88023952,204.5209,205.0208,205.0211,210.2399,[0.4858287632375189],[-0.276723241301059],[1],[0],[0],[5.218700000002968],0,7,7,11,1,./IMAGES_ONLINE_EXPERIMENT/MALES_CFD-WM-031-045-A_ILL9_C4.png,./IMAGES_ONLINE_EXPERIMENT/MALES_CFD-WM-016-005-HC_ILL9_C3.png,./IMAGES_ONLINE_EXPERIMENT/MALES_CFD-WM-026-006-HO_ILL9_C6.png,./IMAGES_ONLINE_EXPERIMENT/MALES_CFD-WM-040-022-N_ILL9_C5.png,./IMAGES_ONLINE_EXPERIMENT/MALES_CFD-WM-041-009-A_ILL9_C1.png,./IMAGES_ONLINE_EXPERIMENT/MALES_CFD-WM-031-038-HC_ILL9_C2.png,./IMAGES_ONLINE_EXPERIMENT/MALES_CFD-WM-026-019-A_ILL9.png,,
,,,,,272633,001,M,29,2026-03-19_14h48.58.164,RUN_BETA,2026.1.0,MacIntel,59.88023952,210.2401,210.7401,210.7404,214.759,[-0.038637008320726175],[0.2182565478441755],[1],[0],[0],[4.018600000008945],0,8,8,1,1,./IMAGES_ONLINE_EXPERIMENT/FEMALE_CFD-WF-029-002-N_ILL10_C3.png,./IMAGES_ONLINE_EXPERIMENT/FEMALE_CFD-WF-006-011-F_ILL10_C4.png,./IMAGES_ONLINE_EXPERIMENT/FEMALE_CFD-WF-022-007-HC_ILL10_C1.png,./IMAGES_ONLINE_EXPERIMENT/FEMALE_CFD-WF-033-035-F_ILL10_C6.png,./IMAGES_ONLINE_EXPERIMENT/FEMALE_CFD-WF-037-029-N_ILL10_C2.png,./IMAGES_ONLINE_EXPERIMENT/FEMALE_CFD-WF-017-023-A_ILL10_C5.png,./IMAGES_ONLINE_EXPERIMENT/FEMALE_CFD-WF-033-005-HO_ILL9.png,,
,,,,,272633,001,M,29,2026-03-19_14h48.58.164,RUN_BETA,2026.1.0,MacIntel,59.88023952,214.7592,215.2589,215.2592,220.4117,[0.4516830559757943],[0.218312689107413],[1],[0],[0],[5.152599999994038],0,9,9,91,1,./IMAGES_ONLINE_EXPERIMENT/MALES_CFD-WM-013-008-HC_ILL10_C4.png,./IMAGES_ONLINE_EXPERIMENT/MALES_CFD-WM-033-007-HO_ILL10_C2.png,./IMAGES_ONLINE_EXPERIMENT/MALES_CFD-WM-031-032-F_ILL10_C3.png,./IMAGES_ONLINE_EXPERIMENT/MALES_CFD-WM-026-013-F_ILL10_C6.png,./IMAGES_ONLINE_EXPERIMENT/MALES_CFD-WM-032-008-HC_ILL10_C5.png,./IMAGES_ONLINE_EXPERIMENT/MALES_CFD-WM-028-019-F_ILL10_C1.png,./IMAGES_ONLINE_EXPERIMENT/MALES_CFD-WM-026-004-HC_ILL9.png,,
,,,,,272633,001,M,29,2026-03-19_14h48.58.164,RUN_BETA,2026.1.0,MacIntel,59.88023952,220.412,220.9114,220.9118,226.2971,[0.571024607602118],[0.2236845215582451],[1],[0],[0],[5.385499999999951],0,10,10,64,1,./IMAGES_ONLINE_EXPERIMENT/FEMALE_CFD-WF-018-017-N_ILL7_C5.png,./IMAGES_ONLINE_EXPERIMENT/FEMALE_CFD-WF-030-031-HC_ILL7_C2.png,./IMAGES_ONLINE_EXPERIMENT/FEMALE_CFD-WF-038-027-HC_ILL7_C1.png,./IMAGES_ONLINE_EXPERIMENT/FEMALE_CFD-WF-023-003-N_ILL7_C3.png,./IMAGES_ONLINE_EXPERIMENT/FEMALE_CFD-WF-035-033-A_ILL7_C6.png,./IMAGES_ONLINE_EXPERIMENT/FEMALE_CFD-WF-008-003-HO_ILL7_C4.png,./IMAGES_ONLINE_EXPERIMENT/FEMALE_CFD-WF-035-030-HC_ILL7.png,,
,,,,,272633,001,M,29,2026-03-19_14h48.58.164,RUN_BETA,2026.1.0,MacIntel,59.88023952,226.2974,226.7974,226.7977,235.0846,[0.5756872872541604],[0.2798169203857791],[1],[0],[0],[8.286999999999978],0,11,11,6,1,./IMAGES_ONLINE_EXPERIMENT/MALES_CFD-WM-041-023-HC_ILL10_C6.png,./IMAGES_ONLINE_EXPERIMENT/MALES_CFD-WM-029-020-F_ILL10_C4.png,./IMAGES_ONLINE_EXPERIMENT/MALES_CFD-WM-037-025-N_ILL10_C2.png,./IMAGES_ONLINE_EXPERIMENT/MALES_CFD-WM-009-002-N_ILL10_C1.png,./IMAGES_ONLINE_EXPERIMENT/MALES_CFD-WM-016-008-A_ILL10_C3.png,./IMAGES_ONLINE_EXPERIMENT/MALES_CFD-WM-032-001-N_ILL10_C5.png,./IMAGES_ONLINE_EXPERIMENT/MALES_CFD-WM-041-009-A_ILL7.png,,
,,,,,272633,001,M,29,2026-03-19_14h48.58.164,RUN_BETA,2026.1.0,MacIntel,59.88023952,235.0848,235.5849,235.5852,238.4053,[-0.4769761724659607],[0.2625106372919818],[1],[0],[0],[2.820299999997019],0,12,12,110,1,./IMAGES_ONLINE_EXPERIMENT/FEMALE_CFD-WF-024-003-N_ILL10_C2.png,./IMAGES_ONLINE_EXPERIMENT/FEMALE_CFD-WF-031-005-HO_ILL10_C3.png,./IMAGES_ONLINE_EXPERIMENT/FEMALE_CFD-WF-034-028-F_ILL10_C6.png,./IMAGES_ONLINE_EXPERIMENT/FEMALE_CFD-WF-014-004-HO_ILL10_C1.png,./IMAGES_ONLINE_EXPERIMENT/FEMALE_CFD-WF-013-003-N_ILL10_C4.png,./IMAGES_ONLINE_EXPERIMENT/FEMALE_CFD-WF-023-020-HO_ILL10_C5.png,./IMAGES_ONLINE_EXPERIMENT/FEMALE_CFD-WF-034-061-HC_ILL10.png,,
,,,,,272633,001,M,29,2026-03-19_14h48.58.164,RUN_BETA,2026.1.0,MacIntel,59.88023952,238.4056,238.9029,238.9033,243.0382,[0.5401350936081695],[-0.24049144288956126],[1],[0],[0],[4.134999999999991],0,13,13,105,1,./IMAGES_ONLINE_EXPERIMENT/MALES_CFD-WM-031-004-HO_ILL10_C3.png,./IMAGES_ONLINE_EXPERIMENT/MALES_CFD-WM-015-005-HO_ILL10_C5.png,./IMAGES_ONLINE_EXPERIMENT/MALES_CFD-WM-035-033-HO_ILL10_C4.png,./IMAGES_ONLINE_EXPERIMENT/MALES_CFD-WM-001-014-N_ILL10_C1.png,./IMAGES_ONLINE_EXPERIMENT/MALES_CFD-WM-004-011-A_ILL10_C6.png,./IMAGES_ONLINE_EXPERIMENT/MALES_CFD-WM-037-025-N_ILL10_C2.png,./IMAGES_ONLINE_EXPERIMENT/MALES_CFD-WM-004-010-N_ILL10.png,,
,,,,,272633,001,M,29,2026-03-19_14h48.58.164,RUN_BETA,2026.1.0,MacIntel,59.88023952,243.0385,243.5385,243.5388,245.6292,[-0.48244846822995463],[0.2234688209152799],[1],[0],[0],[2.0903000000119505],0,14,14,79,1,./IMAGES_ONLINE_EXPERIMENT/MALES_CFD-WM-020-008-A_ILL10_C6.png,./IMAGES_ONLINE_EXPERIMENT/MALES_CFD-WM-019-017-F_ILL10_C3.png,./IMAGES_ONLINE_EXPERIMENT/MALES_CFD-WM-032-001-N_ILL10_C2.png,./IMAGES_ONLINE_EXPERIMENT/MALES_CFD-WM-019-003-N_ILL10_C5.png,./IMAGES_ONLINE_EXPERIMENT/MALES_CFD-WM-001-007-HC_ILL10_C4.png,./IMAGES_ONLINE_EXPERIMENT/MALES_CFD-WM-032-021-F_ILL10_C1.png,./IMAGES_ONLINE_EXPERIMENT/MALES_CFD-WM-020-001-N_ILL9.png,,
,,,,,272633,001,M,29,2026-03-19_14h48.58.164,RUN_BETA,2026.1.0,MacIntel,59.88023952,245.6295,246.1231,246.1233,248.7945,[-0.48259325359304084],[0.22614882753403934],[1],[0],[0],[2.671299999997018],0,15,15,67,1,./IMAGES_ONLINE_EXPERIMENT/MALES_CFD-WM-013-015-A_ILL10_C2.png,./IMAGES_ONLINE_EXPERIMENT/MALES_CFD-WM-009-014-F_ILL10_C4.png,./IMAGES_ONLINE_EXPERIMENT/MALES_CFD-WM-013-019-F_ILL10_C1.png,./IMAGES_ONLINE_EXPERIMENT/MALES_CFD-WM-018-005-HC_ILL10_C3.png,./IMAGES_ONLINE_EXPERIMENT/MALES_CFD-WM-040-023-HO_ILL10_C6.png,./IMAGES_ONLINE_EXPERIMENT/MALES_CFD-WM-014-008-HC_ILL10_C5.png,./IMAGES_ONLINE_EXPERIMENT/MALES_CFD-WM-040-007-A_ILL9.png,,
,,,,,272633,001,M,29,2026-03-19_14h48.58.164,RUN_BETA,2026.1.0,MacIntel,59.88023952,248.7948,249.2912,249.2915,251.5661,[-0.6098714069591528],[0.22508214353252648],[1],[0],[0],[2.2745999999940523],0,16,16,84,1,./IMAGES_ONLINE_EXPERIMENT/FEMALE_CFD-WF-023-026-F_ILL10_C6.png,./IMAGES_ONLINE_EXPERIMENT/FEMALE_CFD-WF-011-016-F_ILL10_C1.png,./IMAGES_ONLINE_EXPERIMENT/FEMALE_CFD-WF-017-015-HO_ILL10_C4.png,./IMAGES_ONLINE_EXPERIMENT/FEMALE_CFD-WF-036-030-HC_ILL10_C5.png,./IMAGES_ONLINE_EXPERIMENT/FEMALE_CFD-WF-005-010-N_ILL10_C3.png,./IMAGES_ONLINE_EXPERIMENT/FEMALE_CFD-WF-003-014-A_ILL10_C2.png,./IMAGES_ONLINE_EXPERIMENT/FEMALE_CFD-WF-023-020-HO_ILL7.png,,
,,,,,272633,001,M,29,2026-03-19_14h48.58.164,RUN_BETA,2026.1.0,MacIntel,59.88023952,251.5663,252.0591,252.0594,255.6445,[0.4328786875945537],[0.2722260306354009],[1],[0],[0],[3.5851000000089357],0,17,17,2,1,./IMAGES_ONLINE_EXPERIMENT/FEMALE_CFD-WF-009-006-HC_ILL10_C1.png,./IMAGES_ONLINE_EXPERIMENT/FEMALE_CFD-WF-017-003-N_ILL10_C5.png,./IMAGES_ONLINE_EXPERIMENT/FEMALE_CFD-WF-029-026-A_ILL10_C2.png,./IMAGES_ONLINE_EXPERIMENT/FEMALE_CFD-WF-024-031-F_ILL10_C3.png,./IMAGES_ONLINE_EXPERIMENT/FEMALE_CFD-WF-026-008-A_ILL10_C6.png,./IMAGES_ONLINE_EXPERIMENT/FEMALE_CFD-WF-002-033-A_ILL10_C4.png,./IMAGES_ONLINE_EXPERIMENT/FEMALE_CFD-WF-026-002-N_ILL10.png,,
,,,,,272633,001,M,29,2026-03-19_14h48.58.164,RUN_BETA,2026.1.0,MacIntel,59.88023952,255.6446,256.1443,256.1446,258.3938,[0.030777231467473524],[0.25017433339636913],[1],[0],[0],[2.2492999999970493],0,18,18,99,1,./IMAGES_ONLINE_EXPERIMENT/FEMALE_CFD-WF-010-013-F_ILL10_C1.png,./IMAGES_ONLINE_EXPERIMENT/FEMALE_CFD-WF-007-005-HC_ILL10_C2.png,./IMAGES_ONLINE_EXPERIMENT/FEMALE_CFD-WF-038-030-A_ILL10_C3.png,./IMAGES_ONLINE_EXPERIMENT/FEMALE_CFD-WF-020-012-A_ILL10_C4.png,./IMAGES_ONLINE_EXPERIMENT/FEMALE_CFD-WF-028-023-N_ILL10_C5.png,./IMAGES_ONLINE_EXPERIMENT/FEMALE_CFD-WF-015-006-N_ILL10_C6.png,./IMAGES_ONLINE_EXPERIMENT/FEMALE_CFD-WF-015-022-HO_ILL10.png,,
,,,,,272633,001,M,29,2026-03-19_14h48.58.164,RUN_BETA,2026.1.0,MacIntel,59.88023952,258.3941,258.8955,258.8959,260.7081,[-0.04712911308623298],[0.20558339636913767],[1],[0],[0],[1.8122000000029743],0,19,19,76,1,./IMAGES_ONLINE_EXPERIMENT/FEMALE_CFD-WF-030-003-HO_ILL7_C1.png,./IMAGES_ONLINE_EXPERIMENT/FEMALE_CFD-WF-038-027-HC_ILL7_C2.png,./IMAGES_ONLINE_EXPERIMENT/FEMALE_CFD-WF-023-020-HO_ILL7_C4.png,./IMAGES_ONLINE_EXPERIMENT/FEMALE_CFD-WF-001-003-N_ILL7_C5.png,./IMAGES_ONLINE_EXPERIMENT/FEMALE_CFD-WF-021-002-N_ILL7_C6.png,./IMAGES_ONLINE_EXPERIMENT/FEMALE_CFD-WF-003-004-HO_ILL7_C3.png,./IMAGES_ONLINE_EXPERIMENT/FEMALE_CFD-WF-021-018-A_ILL7.png,,
,,,,,272633,001,M,29,2026-03-19_14h48.58.164,RUN_BETA,2026.1.0,MacIntel,59.88023952,260.7083,261.1966,261.197,265.4937,[-0.4867624810892587],[0.22122612518910742],[1],[0],[0],[4.296900000005962],0,20,20,55,1,./IMAGES_ONLINE_EXPERIMENT/MALES_CFD-WM-003-006-HC_ILL10_C6.png,./IMAGES_ONLINE_EXPERIMENT/MALES_CFD-WM-018-005-HC_ILL10_C1.png,./IMAGES_ONLINE_EXPERIMENT/MALES_CFD-WM-011-006-HC_ILL10_C2.png,./IMAGES_ONLINE_EXPERIMENT/MALES_CFD-WM-018-007-A_ILL10_C3.png,./IMAGES_ONLINE_EXPERIMENT/MALES_CFD-WM-038-018-F_ILL10_C5.png,./IMAGES_ONLINE_EXPERIMENT/MALES_CFD-WM-009-009-A_ILL10_C4.png,./IMAGES_ONLINE_EXPERIMENT/MALES_CFD-WM-003-003-HO_ILL9.png,,
,,,,,272633,001,M,29,2026-03-19_14h48.58.164,RUN_BETA,2026.1.0,MacIntel,59.88023952,265.4939,265.9822,265.9825,269.4536,[0.06186176248108926],[0.24489705465204237],[1],[0],[0],[3.471200000003023],0,21,21,66,1,./IMAGES_ONLINE_EXPERIMENT/MALES_CFD-WM-024-003-HO_ILL10_C6.png,./IMAGES_ONLINE_EXPERIMENT/MALES_CFD-WM-017-002-N_ILL10_C5.png,./IMAGES_ONLINE_EXPERIMENT/MALES_CFD-WM-015-023-F_ILL10_C4.png,./IMAGES_ONLINE_EXPERIMENT/MALES_CFD-WM-040-007-A_ILL10_C3.png,./IMAGES_ONLINE_EXPERIMENT/MALES_CFD-WM-028-019-F_ILL10_C2.png,./IMAGES_ONLINE_EXPERIMENT/MALES_CFD-WM-017-003-HC_ILL10_C1.png,./IMAGES_ONLINE_EXPERIMENT/MALES_CFD-WM-024-015-N_ILL7.png,,
,,,,,272633,001,M,29,2026-03-19_14h48.58.164,RUN_BETA,2026.1.0,MacIntel,59.88023952,269.4538,269.9506,269.9509,273.16,[0.4752653413388805],[0.2816754916792738],[1],[0],[0],[3.209000000000003],0,22,22,65,1,./IMAGES_ONLINE_EXPERIMENT/FEMALE_CFD-WF-037-016-A_ILL9_C2.png,./IMAGES_ONLINE_EXPERIMENT/FEMALE_CFD-WF-011-006-HC_ILL9_C1.png,./IMAGES_ONLINE_EXPERIMENT/FEMALE_CFD-WF-018-018-HO_ILL9_C6.png,./IMAGES_ONLINE_EXPERIMENT/FEMALE_CFD-WF-025-006-HO_ILL9_C5.png,./IMAGES_ONLINE_EXPERIMENT/FEMALE_CFD-WF-015-006-N_ILL9_C4.png,./IMAGES_ONLINE_EXPERIMENT/FEMALE_CFD-WF-003-014-A_ILL9_C3.png,./IMAGES_ONLINE_EXPERIMENT/FEMALE_CFD-WF-018-019-HC_ILL9.png,,
,,,,,272633,001,M,29,2026-03-19_14h48.58.164,RUN_BETA,2026.1.0,MacIntel,59.88023952,273.1602,273.6523,273.6527,276.3845,[-0.0641724186838124],[-0.28982188445537066],[1],[0],[0],[2.731999999999971],0,23,23,109,1,./IMAGES_ONLINE_EXPERIMENT/FEMALE_CFD-WF-033-031-A_ILL10_C5.png,./IMAGES_ONLINE_EXPERIMENT/FEMALE_CFD-WF-034-028-F_ILL10_C4.png,./IMAGES_ONLINE_EXPERIMENT/FEMALE_CFD-WF-012-002-N_ILL10_C1.png,./IMAGES_ONLINE_EXPERIMENT/FEMALE_CFD-WF-039-005-HO_ILL10_C2.png,./IMAGES_ONLINE_EXPERIMENT/FEMALE_CFD-WF-015-023-HC_ILL10_C3.png,./IMAGES_ONLINE_EXPERIMENT/FEMALE_CFD-WF-031-045-F_ILL10_C6.png,./IMAGES_ONLINE_EXPERIMENT/FEMALE_CFD-WF-031-009-HC_ILL9.png,,
,,,,,272633,001,M,29,2026-03-19_14h48.58.164,RUN_BETA,2026.1.0,MacIntel,59.88023952,276.3847,276.8871,276.8874,279.5857,[0.5668110580559758],[-0.26831091622541603],[1],[0],[0],[2.6983000000118977],0,24,24,12,1,./IMAGES_ONLINE_EXPERIMENT/FEMALE_CFD-WF-022-014-F_ILL10_C5.png,./IMAGES_ONLINE_EXPERIMENT/FEMALE_CFD-WF-026-008-A_ILL10_C1.png,./IMAGES_ONLINE_EXPERIMENT/FEMALE_CFD-WF-039-032-A_ILL10_C2.png,./IMAGES_ONLINE_EXPERIMENT/FEMALE_CFD-WF-034-028-F_ILL10_C4.png,./IMAGES_ONLINE_EXPERIMENT/FEMALE_CFD-WF-007-029-A_ILL10_C3.png,./IMAGES_ONLINE_EXPERIMENT/FEMALE_CFD-WF-029-021-HO_ILL10_C6.png,./IMAGES_ONLINE_EXPERIMENT/FEMALE_CFD-WF-029-023-HC_ILL7.png,,
,,,,,272633,001,M,29,2026-03-19_14h48.58.164,RUN_BETA,2026.1.0,MacIntel,59.88023952,279.5858,280.0887,280.089,285.7363,[0.4104724139561271],[0.2494681354009077],[1],[0],[0],[5.647299999997017],0,25,25,26,1,./IMAGES_ONLINE_EXPERIMENT/FEMALE_CFD-WF-020-012-A_ILL10_C2.png,./IMAGES_ONLINE_EXPERIMENT/FEMALE_CFD-WF-028-026-A_ILL10_C3.png,./IMAGES_ONLINE_EXPERIMENT/FEMALE_CFD-WF-015-022-HO_ILL10_C1.png,./IMAGES_ONLINE_EXPERIMENT/FEMALE_CFD-WF-013-015-A_ILL10_C4.png,./IMAGES_ONLINE_EXPERIMENT/FEMALE_CFD-WF-031-009-HC_ILL10_C5.png,./IMAGES_ONLINE_EXPERIMENT/FEMALE_CFD-WF-039-032-A_ILL10_C6.png,./IMAGES_ONLINE_EXPERIMENT/FEMALE_CFD-WF-039-005-HO_ILL10.png,,
,,,,,272633,001,M,29,2026-03-19_14h48.58.164,RUN_BETA,2026.1.0,MacIntel,59.88023952,285.7365,286.2248,286.2251,288.2396,[-0.4719973288577912],[0.2812145423600605],[1],[0],[0],[2.014499999999998],0,26,26,25,1,./IMAGES_ONLINE_EXPERIMENT/FEMALE_CFD-WF-007-003-HO_ILL10_C6.png,./IMAGES_ONLINE_EXPERIMENT/FEMALE_CFD-WF-003-004-HO_ILL10_C5.png,./IMAGES_ONLINE_EXPERIMENT/FEMALE_CFD-WF-003-003-N_ILL10_C1.png,./IMAGES_ONLINE_EXPERIMENT/FEMALE_CFD-WF-030-031-HC_ILL10_C4.png,./IMAGES_ONLINE_EXPERIMENT/FEMALE_CFD-WF-031-009-HC_ILL10_C3.png,./IMAGES_ONLINE_EXPERIMENT/FEMALE_CFD-WF-018-018-HO_ILL10_C2.png,./IMAGES_ONLINE_EXPERIMENT/FEMALE_CFD-WF-007-029-A_ILL9.png,,
,,,,,272633,001,M,29,2026-03-19_14h48.58.164,RUN_BETA,2026.1.0,MacIntel,59.88023952,288.2398,288.7425,288.7429,290.2726,[0.07007907053706505],[0.19583550018910742],[1],[0],[0],[1.5298000000119032],0,27,27,4,1,./IMAGES_ONLINE_EXPERIMENT/FEMALE_CFD-WF-010-013-F_ILL7_C1.png,./IMAGES_ONLINE_EXPERIMENT/FEMALE_CFD-WF-019-035-HO_ILL7_C4.png,./IMAGES_ONLINE_EXPERIMENT/FEMALE_CFD-WF-021-018-A_ILL7_C6.png,./IMAGES_ONLINE_EXPERIMENT/FEMALE_CFD-WF-031-045-F_ILL7_C5.png,./IMAGES_ONLINE_EXPERIMENT/FEMALE_CFD-WF-023-013-A_ILL7_C2.png,./IMAGES_ONLINE_EXPERIMENT/FEMALE_CFD-WF-011-002-N_ILL7_C3.png,./IMAGES_ONLINE_EXPERIMENT/FEMALE_CFD-WF-021-016-HO_ILL7.png,,
,,,,,272633,001,M,29,2026-03-19_14h48.58.164,RUN_BETA,2026.1.0,MacIntel,59.88023952,290.2728,290.7769,290.7773,295.8746,[-0.5301330843419062],[-0.30906947333585477],[1],[0],[0],[5.097500000000025],0,28,28,7,1,./IMAGES_ONLINE_EXPERIMENT/MALES_CFD-WM-041-023-HC_ILL10_C4.png,./IMAGES_ONLINE_EXPERIMENT/MALES_CFD-WM-014-008-HC_ILL10_C1.png,./IMAGES_ONLINE_EXPERIMENT/MALES_CFD-WM-037-034-HO_ILL10_C3.png,./IMAGES_ONLINE_EXPERIMENT/MALES_CFD-WM-041-021-N_ILL10_C5.png,./IMAGES_ONLINE_EXPERIMENT/MALES_CFD-WM-016-001-N_ILL10_C6.png,./IMAGES_ONLINE_EXPERIMENT/MALES_CFD-WM-015-005-HO_ILL10_C2.png,./IMAGES_ONLINE_EXPERIMENT/MALES_CFD-WM-016-008-A_ILL9.png,,
,,,,,272633,001,M,29,2026-03-19_14h48.58.164,RUN_BETA,2026.1.0,MacIntel,59.88023952,295.8749,296.3628,296.3631,302.6991,[-0.5224033188350984],[0.2205140175869894],[1],[0],[0],[6.336000000000013],0,29,29,28,1,./IMAGES_ONLINE_EXPERIMENT/FEMALE_CFD-WF-011-016-F_ILL7_C4.png,./IMAGES_ONLINE_EXPERIMENT/FEMALE_CFD-WF-022-017-N_ILL7_C2.png,./IMAGES_ONLINE_EXPERIMENT/FEMALE_CFD-WF-006-006-HO_ILL7_C6.png,./IMAGES_ONLINE_EXPERIMENT/FEMALE_CFD-WF-025-031-F_ILL7_C5.png,./IMAGES_ONLINE_EXPERIMENT/FEMALE_CFD-WF-020-023-HO_ILL7_C1.png,./IMAGES_ONLINE_EXPERIMENT/FEMALE_CFD-WF-035-030-HC_ILL7_C3.png,./IMAGES_ONLINE_EXPERIMENT/FEMALE_CFD-WF-006-002-N_ILL7.png,,
,,,,,272633,001,M,29,2026-03-19_14h48.58.164,RUN_BETA,2026.1.0,MacIntel,59.88023952,302.6993,303.1993,303.1996,305.6126,[0.0065507989788199696],[0.18124763615733736],[1],[0],[0],[2.4130999999940173],0,30,30,86,1,./IMAGES_ONLINE_EXPERIMENT/FEMALE_CFD-WF-039-005-HO_ILL10_C2.png,./IMAGES_ONLINE_EXPERIMENT/FEMALE_CFD-WF-038-023-HO_ILL10_C1.png,./IMAGES_ONLINE_EXPERIMENT/FEMALE_CFD-WF-039-032-A_ILL10_C4.png,./IMAGES_ONLINE_EXPERIMENT/FEMALE_CFD-WF-018-018-HO_ILL10_C3.png,./IMAGES_ONLINE_EXPERIMENT/FEMALE_CFD-WF-016-021-A_ILL10_C6.png,./IMAGES_ONLINE_EXPERIMENT/FEMALE_CFD-WF-015-022-HO_ILL10_C5.png,./IMAGES_ONLINE_EXPERIMENT/FEMALE_CFD-WF-016-024-F_ILL10.png,,
,,,,,272633,001,M,29,2026-03-19_14h48.58.164,RUN_BETA,2026.1.0,MacIntel,59.88023952,305.6128,306.1006,306.1009,312.2319,[0.018875283661119516],[0.20245721444780634],[1],[0],[0],[6.130999999999972],0,31,31,63,1,./IMAGES_ONLINE_EXPERIMENT/FEMALE_CFD-WF-028-025-HC_ILL10_C2.png,./IMAGES_ONLINE_EXPERIMENT/FEMALE_CFD-WF-025-006-HO_ILL10_C3.png,./IMAGES_ONLINE_EXPERIMENT/FEMALE_CFD-WF-025-031-F_ILL10_C1.png,./IMAGES_ONLINE_EXPERIMENT/FEMALE_CFD-WF-025-023-HC_ILL10_C4.png,./IMAGES_ONLINE_EXPERIMENT/FEMALE_CFD-WF-012-007-HO_ILL10_C6.png,./IMAGES_ONLINE_EXPERIMENT/FEMALE_CFD-WF-016-021-A_ILL10_C5.png,./IMAGES_ONLINE_EXPERIMENT/FEMALE_CFD-WF-012-012-A_ILL10.png,,
,,,,,272633,001,M,29,2026-03-19_14h48.58.164,RUN_BETA,2026.1.0,MacIntel,59.88023952,312.232,312.7203,312.7207,317.8531,[-0.07777633320726172],[0.21480829236006052],[1],[0],[0],[5.132600000008949],0,32,32,89,1,./IMAGES_ONLINE_EXPERIMENT/FEMALE_CFD-WF-007-003-HO_ILL9_C4.png,./IMAGES_ONLINE_EXPERIMENT/FEMALE_CFD-WF-023-020-HO_ILL9_C2.png,./IMAGES_ONLINE_EXPERIMENT/FEMALE_CFD-WF-029-018-F_ILL9_C5.png,./IMAGES_ONLINE_EXPERIMENT/FEMALE_CFD-WF-015-014-A_ILL9_C6.png,./IMAGES_ONLINE_EXPERIMENT/FEMALE_CFD-WF-011-006-HC_ILL9_C1.png,./IMAGES_ONLINE_EXPERIMENT/FEMALE_CFD-WF-001-009-HO_ILL9_C3.png,./IMAGES_ONLINE_EXPERIMENT/FEMALE_CFD-WF-015-022-HO_ILL9.png,,
,,,,,272633,001,M,29,2026-03-19_14h48.58.164,RUN_BETA,2026.1.0,MacIntel,59.88023952,317.8534,318.3563,318.3567,321.6031,[-0.48482117530257185],[0.2221598430408472],[1],[0],[0],[3.2463999999910698],0,33,33,47,1,./IMAGES_ONLINE_EXPERIMENT/MALES_CFD-WM-012-026-F_ILL9_C3.png,./IMAGES_ONLINE_EXPERIMENT/MALES_CFD-WM-001-007-HC_ILL9_C4.png,./IMAGES_ONLINE_EXPERIMENT/MALES_CFD-WM-013-015-A_ILL9_C6.png,./IMAGES_ONLINE_EXPERIMENT/MALES_CFD-WM-022-008-A_ILL9_C2.png,./IMAGES_ONLINE_EXPERIMENT/MALES_CFD-WM-006-013-HC_ILL9_C1.png,./IMAGES_ONLINE_EXPERIMENT/MALES_CFD-WM-006-010-HO_ILL9_C5.png,./IMAGES_ONLINE_EXPERIMENT/MALES_CFD-WM-013-019-F_ILL9.png,,
,,,,,272633,001,M,29,2026-03-19_14h48.58.164,RUN_BETA,2026.1.0,MacIntel,59.88023952,321.6033,322.0913,322.0916,326.2581,[-0.4706588029500756],[0.20537656013615735],[1],[0],[0],[4.1667000000029475],0,34,34,56,1,./IMAGES_ONLINE_EXPERIMENT/MALES_CFD-WM-031-003-N_ILL10_C6.png,./IMAGES_ONLINE_EXPERIMENT/MALES_CFD-WM-024-015-N_ILL10_C2.png,./IMAGES_ONLINE_EXPERIMENT/MALES_CFD-WM-025-019-HO_ILL10_C4.png,./IMAGES_ONLINE_EXPERIMENT/MALES_CFD-WM-024-019-F_ILL10_C1.png,./IMAGES_ONLINE_EXPERIMENT/MALES_CFD-WM-028-005-HC_ILL10_C5.png,./IMAGES_ONLINE_EXPERIMENT/MALES_CFD-WM-009-014-F_ILL10_C3.png,./IMAGES_ONLINE_EXPERIMENT/MALES_CFD-WM-031-032-F_ILL10.png,,
,,,,,272633,001,M,29,2026-03-19_14h48.58.164,RUN_BETA,2026.1.0,MacIntel,59.88023952,326.2583,326.7601,326.7603,330.1284,[-0.017578125],[0.24361762481089258],[1],[0],[0],[3.3682000000029575],0,35,35,111,1,./IMAGES_ONLINE_EXPERIMENT/FEMALE_CFD-WF-029-018-F_ILL10_C6.png,./IMAGES_ONLINE_EXPERIMENT/FEMALE_CFD-WF-031-027-N_ILL10_C5.png,./IMAGES_ONLINE_EXPERIMENT/FEMALE_CFD-WF-039-044-F_ILL10_C2.png,./IMAGES_ONLINE_EXPERIMENT/FEMALE_CFD-WF-025-031-F_ILL10_C3.png,./IMAGES_ONLINE_EXPERIMENT/FEMALE_CFD-WF-007-029-A_ILL10_C4.png,./IMAGES_ONLINE_EXPERIMENT/FEMALE_CFD-WF-020-023-HO_ILL10_C1.png,./IMAGES_ONLINE_EXPERIMENT/FEMALE_CFD-WF-029-026-A_ILL10.png,,
,,,,,272633,001,M,29,2026-03-19_14h48.58.164,RUN_BETA,2026.1.0,MacIntel,59.88023952,330.1286,330.6285,330.6291,334.8972,[-0.016771463691376703],[0.2414428895612708],[1],[0],[0],[4.268200000002992],0,36,36,29,1,./IMAGES_ONLINE_EXPERIMENT/FEMALE_CFD-WF-010-006-HO_ILL9_C1.png,./IMAGES_ONLINE_EXPERIMENT/FEMALE_CFD-WF-012-012-A_ILL9_C4.png,./IMAGES_ONLINE_EXPERIMENT/FEMALE_CFD-WF-036-023-N_ILL9_C2.png,./IMAGES_ONLINE_EXPERIMENT/FEMALE_CFD-WF-005-010-N_ILL9_C6.png,./IMAGES_ONLINE_EXPERIMENT/FEMALE_CFD-WF-026-017-HO_ILL9_C3.png,./IMAGES_ONLINE_EXPERIMENT/FEMALE_CFD-WF-028-023-N_ILL9_C5.png,./IMAGES_ONLINE_EXPERIMENT/FEMALE_CFD-WF-005-013-HO_ILL9.png,,
,,,,,272633,001,M,29,2026-03-19_14h48.58.164,RUN_BETA,2026.1.0,MacIntel,59.88023952,334.8975,335.3974,335.3977,339.989,[0.5134502647503782],[-0.37147787443267777],[1],[0],[0],[4.591299999997034],0,37,37,58,1,./IMAGES_ONLINE_EXPERIMENT/MALES_CFD-WM-006-022-A_ILL7_C3.png,./IMAGES_ONLINE_EXPERIMENT/MALES_CFD-WM-016-002-HO_ILL7_C4.png,./IMAGES_ONLINE_EXPERIMENT/MALES_CFD-WM-029-014-A_ILL7_C2.png,./IMAGES_ONLINE_EXPERIMENT/MALES_CFD-WM-020-008-A_ILL7_C5.png,./IMAGES_ONLINE_EXPERIMENT/MALES_CFD-WM-035-036-HC_ILL7_C1.png,./IMAGES_ONLINE_EXPERIMENT/MALES_CFD-WM-036-047-F_ILL7_C6.png,./IMAGES_ONLINE_EXPERIMENT/MALES_CFD-WM-036-031-N_ILL7.png,,
,,,,,272633,001,M,29,2026-03-19_14h48.58.164,RUN_BETA,2026.1.0,MacIntel,59.88023952,339.9892,340.483,340.4833,344.5987,[0.536081103441755],[-0.2370697806354009],[1],[0],[0],[4.115400000005991],0,38,38,118,1,./IMAGES_ONLINE_EXPERIMENT/MALES_CFD-WM-021-009-A_ILL7_C3.png,./IMAGES_ONLINE_EXPERIMENT/MALES_CFD-WM-034-027-F_ILL7_C2.png,./IMAGES_ONLINE_EXPERIMENT/MALES_CFD-WM-009-014-F_ILL7_C4.png,./IMAGES_ONLINE_EXPERIMENT/MALES_CFD-WM-029-029-HO_ILL7_C5.png,./IMAGES_ONLINE_EXPERIMENT/MALES_CFD-WM-034-032-HC_ILL7_C1.png,./IMAGES_ONLINE_EXPERIMENT/MALES_CFD-WM-039-004-HC_ILL7_C6.png,./IMAGES_ONLINE_EXPERIMENT/MALES_CFD-WM-039-028-F_ILL7.png,,
,,,,,272633,001,M,29,2026-03-19_14h48.58.164,RUN_BETA,2026.1.0,MacIntel,59.88023952,344.5989,345.1019,345.1023,350.0891,[0.002505673222390318],[0.2422820537065053],[1],[0],[0],[4.98690000000596],0,39,39,15,1,./IMAGES_ONLINE_EXPERIMENT/FEMALE_CFD-WF-017-015-HO_ILL10_C4.png,./IMAGES_ONLINE_EXPERIMENT/FEMALE_CFD-WF-018-013-F_ILL10_C2.png,./IMAGES_ONLINE_EXPERIMENT/FEMALE_CFD-WF-031-045-F_ILL10_C5.png,./IMAGES_ONLINE_EXPERIMENT/FEMALE_CFD-WF-036-030-HC_ILL10_C6.png,./IMAGES_ONLINE_EXPERIMENT/FEMALE_CFD-WF-015-022-HO_ILL10_C1.png,./IMAGES_ONLINE_EXPERIMENT/FEMALE_CFD-WF-005-022-A_ILL10_C3.png,./IMAGES_ONLINE_EXPERIMENT/FEMALE_CFD-WF-036-040-F_ILL10.png,,
,,,,,272633,001,M,29,2026-03-19_14h48.58.164,RUN_BETA,2026.1.0,MacIntel,59.88023952,350.0894,350.5878,350.5881,353.6531,[0.5678009171709532],[-0.34757942511346446],[1],[0],[0],[3.0649999999999977],0,40,40,18,1,./IMAGES_ONLINE_EXPERIMENT/MALES_CFD-WM-022-003-HC_ILL10_C5.png,./IMAGES_ONLINE_EXPERIMENT/MALES_CFD-WM-014-004-HO_ILL10_C4.png,./IMAGES_ONLINE_EXPERIMENT/MALES_CFD-WM-038-005-HO_ILL10_C3.png,./IMAGES_ONLINE_EXPERIMENT/MALES_CFD-WM-037-033-HC_ILL10_C2.png,./IMAGES_ONLINE_EXPERIMENT/MALES_CFD-WM-019-009-HO_ILL10_C1.png,./IMAGES_ONLINE_EXPERIMENT/MALES_CFD-WM-021-006-HC_ILL10_C6.png,./IMAGES_ONLINE_EXPERIMENT/MALES_CFD-WM-021-009-A_ILL7.png,,
,,,,,272633,001,M,29,2026-03-19_14h48.58.164,RUN_BETA,2026.1.0,MacIntel,59.88023952,353.6534,354.1552,354.1555,358.8038,[-0.49682358642208774],[-0.2611277893343419],[1],[0],[0],[4.648399999991057],0,41,41,32,1,./IMAGES_ONLINE_EXPERIMENT/MALES_CFD-WM-003-006-HC_ILL10_C3.png,./IMAGES_ONLINE_EXPERIMENT/MALES_CFD-WM-011-002-N_ILL10_C5.png,./IMAGES_ONLINE_EXPERIMENT/MALES_CFD-WM-017-003-HC_ILL10_C4.png,./IMAGES_ONLINE_EXPERIMENT/MALES_CFD-WM-032-004-HO_ILL10_C6.png,./IMAGES_ONLINE_EXPERIMENT/MALES_CFD-WM-022-012-F_ILL10_C1.png,./IMAGES_ONLINE_EXPERIMENT/MALES_CFD-WM-021-001-N_ILL10_C2.png,./IMAGES_ONLINE_EXPERIMENT/MALES_CFD-WM-032-001-N_ILL10.png,,
,,,,,272633,001,M,29,2026-03-19_14h48.58.164,RUN_BETA,2026.1.0,MacIntel,59.88023952,358.8041,359.2918,359.2921,362.1597,[-0.4626571955370651],[0.19976243381240544],[1],[0],[0],[2.8677000000029693],0,42,42,112,1,./IMAGES_ONLINE_EXPERIMENT/FEMALE_CFD-WF-017-012-F_ILL7_C6.png,./IMAGES_ONLINE_EXPERIMENT/FEMALE_CFD-WF-029-023-HC_ILL7_C1.png,./IMAGES_ONLINE_EXPERIMENT/FEMALE_CFD-WF-018-017-N_ILL7_C5.png,./IMAGES_ONLINE_EXPERIMENT/FEMALE_CFD-WF-035-024-N_ILL7_C2.png,./IMAGES_ONLINE_EXPERIMENT/FEMALE_CFD-WF-005-010-N_ILL7_C4.png,./IMAGES_ONLINE_EXPERIMENT/FEMALE_CFD-WF-034-033-HO_ILL7_C3.png,./IMAGES_ONLINE_EXPERIMENT/FEMALE_CFD-WF-017-023-A_ILL7.png,,
,,,,,272633,001,M,29,2026-03-19_14h48.58.164,RUN_BETA,2026.1.0,MacIntel,59.88023952,362.1599,362.6599,362.6605,366.6584,[-0.5484705937972768],[0.18642445158850227],[1],[0],[0],[3.9981000000088898],0,43,43,95,1,./IMAGES_ONLINE_EXPERIMENT/MALES_CFD-WM-031-003-N_ILL9_C1.png,./IMAGES_ONLINE_EXPERIMENT/MALES_CFD-WM-029-020-F_ILL9_C4.png,./IMAGES_ONLINE_EXPERIMENT/MALES_CFD-WM-025-019-HO_ILL9_C2.png,./IMAGES_ONLINE_EXPERIMENT/MALES_CFD-WM-038-018-F_ILL9_C6.png,./IMAGES_ONLINE_EXPERIMENT/MALES_CFD-WM-020-008-A_ILL9_C5.png,./IMAGES_ONLINE_EXPERIMENT/MALES_CFD-WM-010-016-A_ILL9_C3.png,./IMAGES_ONLINE_EXPERIMENT/MALES_CFD-WM-038-007-HC_ILL9.png,,
,,,,,272633,001,M,29,2026-03-19_14h48.58.164,RUN_BETA,2026.1.0,MacIntel,59.88023952,366.6587,367.162,367.1623,373.968,[0.00010932772314674735],[-0.2758899867624811],[1],[0],[0],[6.805799999997021],0,44,44,24,1,./IMAGES_ONLINE_EXPERIMENT/FEMALE_CFD-WF-037-029-N_ILL10_C4.png,./IMAGES_ONLINE_EXPERIMENT/FEMALE_CFD-WF-035-027-HO_ILL10_C2.png,./IMAGES_ONLINE_EXPERIMENT/FEMALE_CFD-WF-034-028-F_ILL10_C3.png,./IMAGES_ONLINE_EXPERIMENT/FEMALE_CFD-WF-001-016-A_ILL10_C6.png,./IMAGES_ONLINE_EXPERIMENT/FEMALE_CFD-WF-037-016-A_ILL10_C5.png,./IMAGES_ONLINE_EXPERIMENT/FEMALE_CFD-WF-016-015-N_ILL10_C1.png,./IMAGES_ONLINE_EXPERIMENT/FEMALE_CFD-WF-001-009-HO_ILL7.png,,
,,,,,272633,001,M,29,2026-03-19_14h48.58.164,RUN_BETA,2026.1.0,MacIntel,59.88023952,373.9682,374.4654,374.4658,376.7513,[-0.04434273354765507],[-0.2440224328668684],[1],[0],[0],[2.285699999988026],0,45,45,17,1,./IMAGES_ONLINE_EXPERIMENT/FEMALE_CFD-WF-016-017-HC_ILL9_C5.png,./IMAGES_ONLINE_EXPERIMENT/FEMALE_CFD-WF-019-032-HC_ILL9_C6.png,./IMAGES_ONLINE_EXPERIMENT/FEMALE_CFD-WF-021-002-N_ILL9_C2.png,./IMAGES_ONLINE_EXPERIMENT/FEMALE_CFD-WF-036-023-N_ILL9_C4.png,./IMAGES_ONLINE_EXPERIMENT/FEMALE_CFD-WF-039-044-F_ILL9_C1.png,./IMAGES_ONLINE_EXPERIMENT/FEMALE_CFD-WF-018-017-N_ILL9_C3.png,./IMAGES_ONLINE_EXPERIMENT/FEMALE_CFD-WF-019-024-F_ILL9.png,,
,,,,,272633,001,M,29,2026-03-19_14h48.58.164,RUN_BETA,2026.1.0,MacIntel,59.88023952,376.7516,377.25,377.2503,380.6926,[0.49331623487140697],[0.18445359776853254],[1],[0],[0],[3.442400000005989],0,46,46,82,1,./IMAGES_ONLINE_EXPERIMENT/MALES_CFD-WM-016-005-HC_ILL7_C3.png,./IMAGES_ONLINE_EXPERIMENT/MALES_CFD-WM-034-035-HO_ILL7_C1.png,./IMAGES_ONLINE_EXPERIMENT/MALES_CFD-WM-033-007-HO_ILL7_C6.png,./IMAGES_ONLINE_EXPERIMENT/MALES_CFD-WM-024-007-HC_ILL7_C2.png,./IMAGES_ONLINE_EXPERIMENT/MALES_CFD-WM-010-007-HC_ILL7_C4.png,./IMAGES_ONLINE_EXPERIMENT/MALES_CFD-WM-015-017-A_ILL7_C5.png,./IMAGES_ONLINE_EXPERIMENT/MALES_CFD-WM-033-025-N_ILL7.png,,
,,,,,272633,001,M,29,2026-03-19_14h48.58.164,RUN_BETA,2026.1.0,MacIntel,59.88023952,380.6927,381.1852,381.1855,382.9988,[0.07186672655068078],[0.18776297749621784],[1],[0],[0],[1.8132999999970139],0,47,47,57,1,./IMAGES_ONLINE_EXPERIMENT/MALES_CFD-WM-025-002-N_ILL10_C4.png,./IMAGES_ONLINE_EXPERIMENT/MALES_CFD-WM-006-013-HC_ILL10_C2.png,./IMAGES_ONLINE_EXPERIMENT/MALES_CFD-WM-013-001-N_ILL10_C6.png,./IMAGES_ONLINE_EXPERIMENT/MALES_CFD-WM-014-002-N_ILL10_C5.png,./IMAGES_ONLINE_EXPERIMENT/MALES_CFD-WM-020-003-HO_ILL10_C1.png,./IMAGES_ONLINE_EXPERIMENT/MALES_CFD-WM-006-002-N_ILL10_C3.png,./IMAGES_ONLINE_EXPERIMENT/MALES_CFD-WM-013-015-A_ILL10.png,,
,,,,,272633,001,M,29,2026-03-19_14h48.58.164,RUN_BETA,2026.1.0,MacIntel,59.88023952,382.999,383.5028,383.5034,389.2231,[-0.08081682583207261],[0.24015755011346446],[1],[0],[0],[5.719700000003002],0,48,48,9,1,./IMAGES_ONLINE_EXPERIMENT/MALES_CFD-WM-038-003-N_ILL10_C2.png,./IMAGES_ONLINE_EXPERIMENT/MALES_CFD-WM-034-032-HC_ILL10_C3.png,./IMAGES_ONLINE_EXPERIMENT/MALES_CFD-WM-041-021-N_ILL10_C5.png,./IMAGES_ONLINE_EXPERIMENT/MALES_CFD-WM-041-009-A_ILL10_C4.png,./IMAGES_ONLINE_EXPERIMENT/MALES_CFD-WM-029-023-N_ILL10_C6.png,./IMAGES_ONLINE_EXPERIMENT/MALES_CFD-WM-003-003-HO_ILL10_C1.png,./IMAGES_ONLINE_EXPERIMENT/MALES_CFD-WM-029-029-HO_ILL10.png,,
,,,,,272633,001,M,29,2026-03-19_14h48.58.164,RUN_BETA,2026.1.0,MacIntel,59.88023952,389.2233,389.7224,389.7227,393.2696,[-0.43416993664901665],[0.17965204236006052],[1],[0],[0],[3.5469000000059623],0,49,49,104,1,./IMAGES_ONLINE_EXPERIMENT/MALES_CFD-WM-035-032-N_ILL10_C4.png,./IMAGES_ONLINE_EXPERIMENT/MALES_CFD-WM-028-003-N_ILL10_C1.png,./IMAGES_ONLINE_EXPERIMENT/MALES_CFD-WM-009-002-N_ILL10_C3.png,./IMAGES_ONLINE_EXPERIMENT/MALES_CFD-WM-037-063-F_ILL10_C2.png,./IMAGES_ONLINE_EXPERIMENT/MALES_CFD-WM-037-033-HC_ILL10_C5.png,./IMAGES_ONLINE_EXPERIMENT/MALES_CFD-WM-014-024-F_ILL10_C6.png,./IMAGES_ONLINE_EXPERIMENT/MALES_CFD-WM-014-004-HO_ILL10.png,,
,,,,,272633,001,M,29,2026-03-19_14h48.58.164,RUN_BETA,2026.1.0,MacIntel,59.88023952,393.2698,393.7577,393.7579,397.2145,[0.492716409795764],[0.2164570726172466],[1],[0],[0],[3.456700000002968],0,50,50,49,1,./IMAGES_ONLINE_EXPERIMENT/FEMALE_CFD-WF-037-029-N_ILL10_C3.png,./IMAGES_ONLINE_EXPERIMENT/FEMALE_CFD-WF-039-005-HO_ILL10_C5.png,./IMAGES_ONLINE_EXPERIMENT/FEMALE_CFD-WF-018-019-HC_ILL10_C2.png,./IMAGES_ONLINE_EXPERIMENT/FEMALE_CFD-WF-034-016-A_ILL10_C6.png,./IMAGES_ONLINE_EXPERIMENT/FEMALE_CFD-WF-006-006-HO_ILL10_C1.png,./IMAGES_ONLINE_EXPERIMENT/FEMALE_CFD-WF-007-029-A_ILL10_C4.png,./IMAGES_ONLINE_EXPERIMENT/FEMALE_CFD-WF-034-033-HO_ILL9.png,,
,,,,,272633,001,M,29,2026-03-19_14h48.58.164,RUN_BETA,2026.1.0,MacIntel,59.88023952,397.2148,397.7094,397.7097,400.8906,[0.5056111715204236],[0.1797850085098336],[1],[0],[0],[3.180999999999983],0,51,51,21,1,./IMAGES_ONLINE_EXPERIMENT/MALES_CFD-WM-033-006-HC_ILL10_C3.png,./IMAGES_ONLINE_EXPERIMENT/MALES_CFD-WM-022-008-A_ILL10_C2.png,./IMAGES_ONLINE_EXPERIMENT/MALES_CFD-WM-002-009-N_ILL10_C6.png,./IMAGES_ONLINE_EXPERIMENT/MALES_CFD-WM-022-005-HO_ILL10_C5.png,./IMAGES_ONLINE_EXPERIMENT/MALES_CFD-WM-012-005-HO_ILL10_C4.png,./IMAGES_ONLINE_EXPERIMENT/MALES_CFD-WM-023-012-A_ILL10_C1.png,./IMAGES_ONLINE_EXPERIMENT/MALES_CFD-WM-002-007-HO_ILL10.png,,
,,,,,272633,001,M,29,2026-03-19_14h48.58.164,RUN_BETA,2026.1.0,MacIntel,59.88023952,400.8908,401.3945,401.3948,403.6593,[0.5418666083585476],[0.1952179462934947],[1],[0],[0],[2.264499999999998],0,52,52,19,1,./IMAGES_ONLINE_EXPERIMENT/MALES_CFD-WM-016-001-N_ILL10_C2.png,./IMAGES_ONLINE_EXPERIMENT/MALES_CFD-WM-037-060-A_ILL10_C3.png,./IMAGES_ONLINE_EXPERIMENT/MALES_CFD-WM-018-002-N_ILL10_C4.png,./IMAGES_ONLINE_EXPERIMENT/MALES_CFD-WM-034-035-HO_ILL10_C5.png,./IMAGES_ONLINE_EXPERIMENT/MALES_CFD-WM-033-007-HO_ILL10_C1.png,./IMAGES_ONLINE_EXPERIMENT/MALES_CFD-WM-011-011-A_ILL10_C6.png,./IMAGES_ONLINE_EXPERIMENT/MALES_CFD-WM-011-002-N_ILL9.png,,
,,,,,272633,001,M,29,2026-03-19_14h48.58.164,RUN_BETA,2026.1.0,MacIntel,59.88023952,403.6595,404.1624,404.1628,406.1557,[0.03800468040847201],[0.20072274489409986],[1],[0],[0],[1.992999999999995],0,53,53,10,1,./IMAGES_ONLINE_EXPERIMENT/MALES_CFD-WM-026-001-N_ILL7_C3.png,./IMAGES_ONLINE_EXPERIMENT/MALES_CFD-WM-018-005-HC_ILL7_C5.png,./IMAGES_ONLINE_EXPERIMENT/MALES_CFD-WM-039-004-HC_ILL7_C1.png,./IMAGES_ONLINE_EXPERIMENT/MALES_CFD-WM-032-004-HO_ILL7_C2.png,./IMAGES_ONLINE_EXPERIMENT/MALES_CFD-WM-013-008-HC_ILL7_C4.png,./IMAGES_ONLINE_EXPERIMENT/MALES_CFD-WM-009-014-F_ILL7_C6.png,./IMAGES_ONLINE_EXPERIMENT/MALES_CFD-WM-009-002-N_ILL7.png,,
,,,,,272633,001,M,29,2026-03-19_14h48.58.164,RUN_BETA,2026.1.0,MacIntel,59.88023952,406.1559,406.6469,406.6471,409.9974,[-0.5371861998865356],[-0.2770157668305598],[1],[0],[0],[3.3502999999970484],0,54,54,53,1,./IMAGES_ONLINE_EXPERIMENT/FEMALE_CFD-WF-030-003-HO_ILL9_C5.png,./IMAGES_ONLINE_EXPERIMENT/FEMALE_CFD-WF-039-005-HO_ILL9_C3.png,./IMAGES_ONLINE_EXPERIMENT/FEMALE_CFD-WF-027-007-HC_ILL9_C2.png,./IMAGES_ONLINE_EXPERIMENT/FEMALE_CFD-WF-001-027-F_ILL9_C4.png,./IMAGES_ONLINE_EXPERIMENT/FEMALE_CFD-WF-029-023-HC_ILL9_C6.png,./IMAGES_ONLINE_EXPERIMENT/FEMALE_CFD-WF-002-033-A_ILL9_C1.png,./IMAGES_ONLINE_EXPERIMENT/FEMALE_CFD-WF-029-002-N_ILL9.png,,
,,,,,272633,001,M,29,2026-03-19_14h48.58.164,RUN_BETA,2026.1.0,MacIntel,59.88023952,409.9977,410.4986,410.499,414.3218,[-0.4746684710665658],[-0.2755176815431165],[1],[0],[0],[3.8227000000030102],0,55,55,106,1,./IMAGES_ONLINE_EXPERIMENT/MALES_CFD-WM-032-008-HC_ILL7_C3.png,./IMAGES_ONLINE_EXPERIMENT/MALES_CFD-WM-012-026-F_ILL7_C5.png,./IMAGES_ONLINE_EXPERIMENT/MALES_CFD-WM-013-006-HO_ILL7_C2.png,./IMAGES_ONLINE_EXPERIMENT/MALES_CFD-WM-014-004-HO_ILL7_C6.png,./IMAGES_ONLINE_EXPERIMENT/MALES_CFD-WM-041-009-A_ILL7_C1.png,./IMAGES_ONLINE_EXPERIMENT/MALES_CFD-WM-023-004-HO_ILL7_C4.png,./IMAGES_ONLINE_EXPERIMENT/MALES_CFD-WM-014-002-N_ILL7.png,,
,,,,,272633,001,M,29,2026-03-19_14h48.58.164,RUN_BETA,2026.1.0,MacIntel,59.88023952,414.322,414.8173,414.8176,419.0515,[-0.06348099470499244],[-0.25243475794251136],[1],[0],[0],[4.234000000000037],0,56,56,36,1,./IMAGES_ONLINE_EXPERIMENT/FEMALE_CFD-WF-001-010-HC_ILL10_C4.png,./IMAGES_ONLINE_EXPERIMENT/FEMALE_CFD-WF-025-023-HC_ILL10_C6.png,./IMAGES_ONLINE_EXPERIMENT/FEMALE_CFD-WF-036-030-HC_ILL10_C2.png,./IMAGES_ONLINE_EXPERIMENT/FEMALE_CFD-WF-018-013-F_ILL10_C1.png,./IMAGES_ONLINE_EXPERIMENT/FEMALE_CFD-WF-006-006-HO_ILL10_C5.png,./IMAGES_ONLINE_EXPERIMENT/FEMALE_CFD-WF-009-006-HC_ILL10_C3.png,./IMAGES_ONLINE_EXPERIMENT/FEMALE_CFD-WF-025-006-HO_ILL7.png,,
,,,,,272633,001,M,29,2026-03-19_14h48.58.164,RUN_BETA,2026.1.0,MacIntel,59.88023952,419.0517,419.5528,419.5532,422.8696,[-0.5748303942889561],[-0.24523685703479575],[1],[0],[0],[3.3167000000029816],0,57,57,5,1,./IMAGES_ONLINE_EXPERIMENT/FEMALE_CFD-WF-007-003-HO_ILL9_C5.png,./IMAGES_ONLINE_EXPERIMENT/FEMALE_CFD-WF-022-019-HO_ILL9_C3.png,./IMAGES_ONLINE_EXPERIMENT/FEMALE_CFD-WF-002-004-N_ILL9_C2.png,./IMAGES_ONLINE_EXPERIMENT/FEMALE_CFD-WF-025-031-F_ILL9_C4.png,./IMAGES_ONLINE_EXPERIMENT/FEMALE_CFD-WF-003-004-HO_ILL9_C1.png,./IMAGES_ONLINE_EXPERIMENT/FEMALE_CFD-WF-036-023-N_ILL9_C6.png,./IMAGES_ONLINE_EXPERIMENT/FEMALE_CFD-WF-036-015-A_ILL9.png,,
,,,,,272633,001,M,29,2026-03-19_14h48.58.164,RUN_BETA,2026.1.0,MacIntel,59.88023952,422.8698,423.3712,423.3716,425.6756,[0.03182323184568835],[0.1670409417549168],[1],[0],[0],[2.304200000002993],0,58,58,22,1,./IMAGES_ONLINE_EXPERIMENT/MALES_CFD-WM-010-007-HC_ILL7_C1.png,./IMAGES_ONLINE_EXPERIMENT/MALES_CFD-WM-040-033-F_ILL7_C5.png,./IMAGES_ONLINE_EXPERIMENT/MALES_CFD-WM-003-006-HC_ILL7_C2.png,./IMAGES_ONLINE_EXPERIMENT/MALES_CFD-WM-039-018-N_ILL7_C6.png,./IMAGES_ONLINE_EXPERIMENT/MALES_CFD-WM-017-011-A_ILL7_C4.png,./IMAGES_ONLINE_EXPERIMENT/MALES_CFD-WM-023-015-F_ILL7_C3.png,./IMAGES_ONLINE_EXPERIMENT/MALES_CFD-WM-039-010-A_ILL7.png,,
,,,,,272633,001,M,29,2026-03-19_14h48.58.164,RUN_BETA,2026.1.0,MacIntel,59.88023952,425.6758,426.1725,426.1728,429.5849,[-0.5532780588124054],[-0.2415108500378215],[1],[0],[0],[3.412200000002997],0,59,59,80,1,./IMAGES_ONLINE_EXPERIMENT/MALES_CFD-WM-003-002-N_ILL10_C1.png,./IMAGES_ONLINE_EXPERIMENT/MALES_CFD-WM-012-001-N_ILL10_C2.png,./IMAGES_ONLINE_EXPERIMENT/MALES_CFD-WM-036-034-HO_ILL10_C5.png,./IMAGES_ONLINE_EXPERIMENT/MALES_CFD-WM-032-001-N_ILL10_C6.png,./IMAGES_ONLINE_EXPERIMENT/MALES_CFD-WM-009-006-HC_ILL10_C3.png,./IMAGES_ONLINE_EXPERIMENT/MALES_CFD-WM-031-038-HC_ILL10_C4.png,./IMAGES_ONLINE_EXPERIMENT/MALES_CFD-WM-032-008-HC_ILL10.png,,
,,,,,272633,001,M,29,2026-03-19_14h48.58.164,RUN_BETA,2026.1.0,MacIntel,59.88023952,429.5852,430.0743,430.0746,432.9609,[-0.4518721633888048],[-0.23618038483358547],[1],[0],[0],[2.8864999999999554],0,60,60,45,1,./IMAGES_ONLINE_EXPERIMENT/MALES_CFD-WM-013-001-N_ILL10_C5.png,./IMAGES_ONLINE_EXPERIMENT/MALES_CFD-WM-006-010-HO_ILL10_C1.png,./IMAGES_ONLINE_EXPERIMENT/MALES_CFD-WM-034-035-HO_ILL10_C4.png,./IMAGES_ONLINE_EXPERIMENT/MALES_CFD-WM-020-012-F_ILL10_C6.png,./IMAGES_ONLINE_EXPERIMENT/MALES_CFD-WM-036-018-A_ILL10_C2.png,./IMAGES_ONLINE_EXPERIMENT/MALES_CFD-WM-034-027-F_ILL10_C3.png,./IMAGES_ONLINE_EXPERIMENT/MALES_CFD-WM-020-001-N_ILL10.png,,
,,,,,272633,001,M,29,2026-03-19_14h48.58.164,RUN_BETA,2026.1.0,MacIntel,59.88023952,432.9612,433.4592,433.4596,435.2525,[-0.06581824413767019],[0.1932914145234493],[1],[0],[0],[1.7930999999940127],0,61,61,14,1,./IMAGES_ONLINE_EXPERIMENT/FEMALE_CFD-WF-029-018-F_ILL10_C3.png,./IMAGES_ONLINE_EXPERIMENT/FEMALE_CFD-WF-034-033-HO_ILL10_C6.png,./IMAGES_ONLINE_EXPERIMENT/FEMALE_CFD-WF-028-026-A_ILL10_C1.png,./IMAGES_ONLINE_EXPERIMENT/FEMALE_CFD-WF-025-031-F_ILL10_C4.png,./IMAGES_ONLINE_EXPERIMENT/FEMALE_CFD-WF-030-031-HC_ILL10_C5.png,./IMAGES_ONLINE_EXPERIMENT/FEMALE_CFD-WF-005-027-F_ILL10_C2.png,./IMAGES_ONLINE_EXPERIMENT/FEMALE_CFD-WF-034-028-F_ILL10.png,,
,,,,,272633,001,M,29,2026-03-19_14h48.58.164,RUN_BETA,2026.1.0,MacIntel,59.88023952,435.2528,435.7436,435.7439,437.5142,[0.09714802382753404],[0.24013391168683812],[1],[0],[0],[1.7704000000059636],0,62,62,40,1,./IMAGES_ONLINE_EXPERIMENT/FEMALE_CFD-WF-026-002-N_ILL7_C3.png,./IMAGES_ONLINE_EXPERIMENT/FEMALE_CFD-WF-011-011-A_ILL7_C6.png,./IMAGES_ONLINE_EXPERIMENT/FEMALE_CFD-WF-021-016-HO_ILL7_C4.png,./IMAGES_ONLINE_EXPERIMENT/FEMALE_CFD-WF-013-015-A_ILL7_C2.png,./IMAGES_ONLINE_EXPERIMENT/FEMALE_CFD-WF-026-008-A_ILL7_C1.png,./IMAGES_ONLINE_EXPERIMENT/FEMALE_CFD-WF-009-006-HC_ILL7_C5.png,./IMAGES_ONLINE_EXPERIMENT/FEMALE_CFD-WF-011-016-F_ILL7.png,,
,,,,,272633,001,M,29,2026-03-19_14h48.58.164,RUN_BETA,2026.1.0,MacIntel,59.88023952,437.5144,438.0112,438.0116,442.2323,[-0.5619119941376702],[0.19283637481089258],[1],[0],[0],[4.220899999991104],0,63,63,72,1,./IMAGES_ONLINE_EXPERIMENT/FEMALE_CFD-WF-015-006-N_ILL10_C5.png,./IMAGES_ONLINE_EXPERIMENT/FEMALE_CFD-WF-001-009-HO_ILL10_C4.png,./IMAGES_ONLINE_EXPERIMENT/FEMALE_CFD-WF-024-031-F_ILL10_C6.png,./IMAGES_ONLINE_EXPERIMENT/FEMALE_CFD-WF-007-026-F_ILL10_C3.png,./IMAGES_ONLINE_EXPERIMENT/FEMALE_CFD-WF-037-029-N_ILL10_C2.png,./IMAGES_ONLINE_EXPERIMENT/FEMALE_CFD-WF-023-013-A_ILL10_C1.png,./IMAGES_ONLINE_EXPERIMENT/FEMALE_CFD-WF-024-010-HC_ILL7.png,,
,,,,,272633,001,M,29,2026-03-19_14h48.58.164,RUN_BETA,2026.1.0,MacIntel,59.88023952,442.2326,442.7302,442.7304,445.5168,[-0.045450784795764],[-0.22732188445537066],[1],[0],[0],[2.7864999999999895],0,64,64,39,1,./IMAGES_ONLINE_EXPERIMENT/FEMALE_CFD-WF-021-006-HC_ILL10_C3.png,./IMAGES_ONLINE_EXPERIMENT/FEMALE_CFD-WF-016-003-HO_ILL10_C2.png,./IMAGES_ONLINE_EXPERIMENT/FEMALE_CFD-WF-010-008-HC_ILL10_C1.png,./IMAGES_ONLINE_EXPERIMENT/FEMALE_CFD-WF-022-023-A_ILL10_C5.png,./IMAGES_ONLINE_EXPERIMENT/FEMALE_CFD-WF-015-027-F_ILL10_C6.png,./IMAGES_ONLINE_EXPERIMENT/FEMALE_CFD-WF-033-031-A_ILL10_C4.png,./IMAGES_ONLINE_EXPERIMENT/FEMALE_CFD-WF-015-014-A_ILL10.png,,
,,,,,272633,001,M,29,2026-03-19_14h48.58.164,RUN_BETA,2026.1.0,MacIntel,59.88023952,445.5171,446.015,446.0155,449.1841,[0.004257871596066566],[0.17930928517397882],[1],[0],[0],[3.1689000000059195],0,65,65,27,1,./IMAGES_ONLINE_EXPERIMENT/FEMALE_CFD-WF-014-009-HC_ILL10_C5.png,./IMAGES_ONLINE_EXPERIMENT/FEMALE_CFD-WF-011-003-HO_ILL10_C3.png,./IMAGES_ONLINE_EXPERIMENT/FEMALE_CFD-WF-023-026-F_ILL10_C1.png,./IMAGES_ONLINE_EXPERIMENT/FEMALE_CFD-WF-003-007-HC_ILL10_C6.png,./IMAGES_ONLINE_EXPERIMENT/FEMALE_CFD-WF-021-016-HO_ILL10_C4.png,./IMAGES_ONLINE_EXPERIMENT/FEMALE_CFD-WF-012-012-A_ILL10_C2.png,./IMAGES_ONLINE_EXPERIMENT/FEMALE_CFD-WF-003-004-HO_ILL10.png,,
,,,,,272633,001,M,29,2026-03-19_14h48.58.164,RUN_BETA,2026.1.0,MacIntel,59.88023952,449.1844,449.6833,449.6837,452.9667,[-0.48506642397882],[-0.29429545669440244],[1],[0],[0],[3.283200000003035],0,66,66,38,1,./IMAGES_ONLINE_EXPERIMENT/FEMALE_CFD-WF-013-006-HO_ILL10_C4.png,./IMAGES_ONLINE_EXPERIMENT/FEMALE_CFD-WF-011-002-N_ILL10_C1.png,./IMAGES_ONLINE_EXPERIMENT/FEMALE_CFD-WF-003-007-HC_ILL10_C5.png,./IMAGES_ONLINE_EXPERIMENT/FEMALE_CFD-WF-028-025-HC_ILL10_C6.png,./IMAGES_ONLINE_EXPERIMENT/FEMALE_CFD-WF-025-031-F_ILL10_C2.png,./IMAGES_ONLINE_EXPERIMENT/FEMALE_CFD-WF-022-019-HO_ILL10_C3.png,./IMAGES_ONLINE_EXPERIMENT/FEMALE_CFD-WF-028-026-A_ILL10.png,,
,,,,,272633,001,M,29,2026-03-19_14h48.58.164,RUN_BETA,2026.1.0,MacIntel,59.88023952,452.967,453.4684,453.4687,455.1883,[-0.012968631807866868],[0.19083597295763993],[1],[0],[0],[1.7195999999940454],0,67,67,70,1,./IMAGES_ONLINE_EXPERIMENT/MALES_CFD-WM-016-008-A_ILL7_C1.png,./IMAGES_ONLINE_EXPERIMENT/MALES_CFD-WM-029-009-HC_ILL7_C6.png,./IMAGES_ONLINE_EXPERIMENT/MALES_CFD-WM-036-047-F_ILL7_C3.png,./IMAGES_ONLINE_EXPERIMENT/MALES_CFD-WM-009-004-HO_ILL7_C4.png,./IMAGES_ONLINE_EXPERIMENT/MALES_CFD-WM-015-009-HC_ILL7_C2.png,./IMAGES_ONLINE_EXPERIMENT/MALES_CFD-WM-016-005-HC_ILL7_C5.png,./IMAGES_ONLINE_EXPERIMENT/MALES_CFD-WM-029-023-N_ILL7.png,,
,,,,,272633,001,M,29,2026-03-19_14h48.58.164,RUN_BETA,2026.1.0,MacIntel,59.88023952,455.1885,455.6861,455.6864,462.444,[0.45333774583963693],[0.196645116301059],[1],[0],[0],[6.757600000008949],0,68,68,61,1,./IMAGES_ONLINE_EXPERIMENT/FEMALE_CFD-WF-008-003-HO_ILL10_C2.png,./IMAGES_ONLINE_EXPERIMENT/FEMALE_CFD-WF-035-019-F_ILL10_C1.png,./IMAGES_ONLINE_EXPERIMENT/FEMALE_CFD-WF-009-015-F_ILL10_C3.png,./IMAGES_ONLINE_EXPERIMENT/FEMALE_CFD-WF-029-026-A_ILL10_C4.png,./IMAGES_ONLINE_EXPERIMENT/FEMALE_CFD-WF-033-005-HO_ILL10_C6.png,./IMAGES_ONLINE_EXPERIMENT/FEMALE_CFD-WF-016-015-N_ILL10_C5.png,./IMAGES_ONLINE_EXPERIMENT/FEMALE_CFD-WF-033-002-N_ILL9.png,,
,,,,,272633,001,M,29,2026-03-19_14h48.58.164,RUN_BETA,2026.1.0,MacIntel,59.88023952,462.4442,462.9395,462.9397,471.7435,[0.5544865733736762],[0.1708260448184569],[1],[0],[0],[8.803899999991017],0,69,69,115,1,./IMAGES_ONLINE_EXPERIMENT/MALES_CFD-WM-024-007-HC_ILL10_C4.png,./IMAGES_ONLINE_EXPERIMENT/MALES_CFD-WM-031-004-HO_ILL10_C1.png,./IMAGES_ONLINE_EXPERIMENT/MALES_CFD-WM-032-004-HO_ILL10_C2.png,./IMAGES_ONLINE_EXPERIMENT/MALES_CFD-WM-017-011-A_ILL10_C6.png,./IMAGES_ONLINE_EXPERIMENT/MALES_CFD-WM-021-006-HC_ILL10_C5.png,./IMAGES_ONLINE_EXPERIMENT/MALES_CFD-WM-009-014-F_ILL10_C3.png,./IMAGES_ONLINE_EXPERIMENT/MALES_CFD-WM-017-002-N_ILL9.png,,
,,,,,272633,001,M,29,2026-03-19_14h48.58.164,RUN_BETA,2026.1.0,MacIntel,59.88023952,471.7437,472.2437,472.2441,474.5758,[-0.6060124338124054],[0.22404205276096822],[1],[0],[0],[2.3317999999969743],0,70,70,34,1,./IMAGES_ONLINE_EXPERIMENT/MALES_CFD-WM-021-004-HO_ILL7_C6.png,./IMAGES_ONLINE_EXPERIMENT/MALES_CFD-WM-040-022-N_ILL7_C1.png,./IMAGES_ONLINE_EXPERIMENT/MALES_CFD-WM-003-002-N_ILL7_C5.png,./IMAGES_ONLINE_EXPERIMENT/MALES_CFD-WM-018-007-A_ILL7_C2.png,./IMAGES_ONLINE_EXPERIMENT/MALES_CFD-WM-014-024-F_ILL7_C3.png,./IMAGES_ONLINE_EXPERIMENT/MALES_CFD-WM-035-018-A_ILL7_C4.png,./IMAGES_ONLINE_EXPERIMENT/MALES_CFD-WM-021-001-N_ILL7.png,,
,,,,,272633,001,M,29,2026-03-19_14h48.58.164,RUN_BETA,2026.1.0,MacIntel,59.88023952,474.576,475.0783,475.0787,478.1817,[0.5898703432299546],[0.189361526096823],[1],[0],[0],[3.1032000000029143],0,71,71,23,1,./IMAGES_ONLINE_EXPERIMENT/MALES_CFD-WM-004-002-F_ILL9_C1.png,./IMAGES_ONLINE_EXPERIMENT/MALES_CFD-WM-010-007-HC_ILL9_C5.png,./IMAGES_ONLINE_EXPERIMENT/MALES_CFD-WM-033-014-A_ILL9_C6.png,./IMAGES_ONLINE_EXPERIMENT/MALES_CFD-WM-021-004-HO_ILL9_C3.png,./IMAGES_ONLINE_EXPERIMENT/MALES_CFD-WM-028-007-HO_ILL9_C4.png,./IMAGES_ONLINE_EXPERIMENT/MALES_CFD-WM-026-006-HO_ILL9_C2.png,./IMAGES_ONLINE_EXPERIMENT/MALES_CFD-WM-033-006-HC_ILL9.png,,
,,,,,272633,001,M,29,2026-03-19_14h48.58.164,RUN_BETA,2026.1.0,MacIntel,59.88023952,478.182,478.68,478.6803,484.0641,[-0.5421945915279879],[0.27717532621028745],[1],[0],[0],[5.383899999991058],0,72,72,96,1,./IMAGES_ONLINE_EXPERIMENT/FEMALE_CFD-WF-011-006-HC_ILL10_C6.png,./IMAGES_ONLINE_EXPERIMENT/FEMALE_CFD-WF-016-017-HC_ILL10_C5.png,./IMAGES_ONLINE_EXPERIMENT/FEMALE_CFD-WF-010-014-A_ILL10_C3.png,./IMAGES_ONLINE_EXPERIMENT/FEMALE_CFD-WF-033-005-HO_ILL10_C1.png,./IMAGES_ONLINE_EXPERIMENT/FEMALE_CFD-WF-030-026-F_ILL10_C4.png,./IMAGES_ONLINE_EXPERIMENT/FEMALE_CFD-WF-016-015-N_ILL10_C2.png,./IMAGES_ONLINE_EXPERIMENT/FEMALE_CFD-WF-011-016-F_ILL7.png,,
,,,,,272633,001,M,29,2026-03-19_14h48.58.164,RUN_BETA,2026.1.0,MacIntel,59.88023952,484.0644,484.566,484.5664,486.3368,[0.019170763993948563],[0.247609564107413],[1],[0],[0],[1.7705999999941469],0,73,73,68,1,./IMAGES_ONLINE_EXPERIMENT/MALES_CFD-WM-033-025-N_ILL10_C2.png,./IMAGES_ONLINE_EXPERIMENT/MALES_CFD-WM-039-008-HO_ILL10_C6.png,./IMAGES_ONLINE_EXPERIMENT/MALES_CFD-WM-020-005-HC_ILL10_C5.png,./IMAGES_ONLINE_EXPERIMENT/MALES_CFD-WM-024-010-A_ILL10_C1.png,./IMAGES_ONLINE_EXPERIMENT/MALES_CFD-WM-020-012-F_ILL10_C3.png,./IMAGES_ONLINE_EXPERIMENT/MALES_CFD-WM-012-005-HO_ILL10_C4.png,./IMAGES_ONLINE_EXPERIMENT/MALES_CFD-WM-039-028-F_ILL10.png,,
,,,,,272633,001,M,29,2026-03-19_14h48.58.164,RUN_BETA,2026.1.0,MacIntel,59.88023952,486.3369,486.8337,486.834,489.0554,[-0.051759289901664146],[-0.2715168778366112],[1],[0],[0],[2.221600000008948],0,74,74,46,1,./IMAGES_ONLINE_EXPERIMENT/MALES_CFD-WM-038-018-F_ILL7_C2.png,./IMAGES_ONLINE_EXPERIMENT/MALES_CFD-WM-002-009-N_ILL7_C4.png,./IMAGES_ONLINE_EXPERIMENT/MALES_CFD-WM-013-006-HO_ILL7_C6.png,./IMAGES_ONLINE_EXPERIMENT/MALES_CFD-WM-025-018-HC_ILL7_C3.png,./IMAGES_ONLINE_EXPERIMENT/MALES_CFD-WM-040-022-N_ILL7_C5.png,./IMAGES_ONLINE_EXPERIMENT/MALES_CFD-WM-010-020-F_ILL7_C1.png,./IMAGES_ONLINE_EXPERIMENT/MALES_CFD-WM-013-015-A_ILL7.png,,
,,,,,272633,001,M,29,2026-03-19_14h48.58.164,RUN_BETA,2026.1.0,MacIntel,59.88023952,489.0556,489.5516,489.552,497.8343,[0.017244232223903175],[-0.15247376134644477],[1],[0],[0],[8.282399999991071],0,75,75,52,1,./IMAGES_ONLINE_EXPERIMENT/FEMALE_CFD-WF-011-006-HC_ILL7_C2.png,./IMAGES_ONLINE_EXPERIMENT/FEMALE_CFD-WF-028-019-F_ILL7_C5.png,./IMAGES_ONLINE_EXPERIMENT/FEMALE_CFD-WF-033-031-A_ILL7_C4.png,./IMAGES_ONLINE_EXPERIMENT/FEMALE_CFD-WF-037-024-F_ILL7_C1.png,./IMAGES_ONLINE_EXPERIMENT/FEMALE_CFD-WF-034-028-F_ILL7_C6.png,./IMAGES_ONLINE_EXPERIMENT/FEMALE_CFD-WF-028-025-HC_ILL7_C3.png,./IMAGES_ONLINE_EXPERIMENT/FEMALE_CFD-WF-034-006-N_ILL7.png,,
,,,,,272633,001,M,29,2026-03-19_14h48.58.164,RUN_BETA,2026.1.0,MacIntel,59.88023952,497.8345,498.3223,498.3228,503.3613,[0.4200223383131619],[-0.22645612708018154],[1],[0],[0],[5.0386999999881255],0,76,76,62,1,./IMAGES_ONLINE_EXPERIMENT/FEMALE_CFD-WF-016-017-HC_ILL10_C3.png,./IMAGES_ONLINE_EXPERIMENT/FEMALE_CFD-WF-011-006-HC_ILL10_C6.png,./IMAGES_ONLINE_EXPERIMENT/FEMALE_CFD-WF-010-014-A_ILL10_C2.png,./IMAGES_ONLINE_EXPERIMENT/FEMALE_CFD-WF-030-031-HC_ILL10_C1.png,./IMAGES_ONLINE_EXPERIMENT/FEMALE_CFD-WF-037-016-A_ILL10_C5.png,./IMAGES_ONLINE_EXPERIMENT/FEMALE_CFD-WF-027-007-HC_ILL10_C4.png,./IMAGES_ONLINE_EXPERIMENT/FEMALE_CFD-WF-011-002-N_ILL10.png,,
,,,,,272633,001,M,29,2026-03-19_14h48.58.164,RUN_BETA,2026.1.0,MacIntel,59.88023952,503.3614,503.8582,503.8585,506.5567,[-0.051180148449319215],[0.22608973146747352],[1],[0],[0],[2.6982000000029984],0,77,77,35,1,./IMAGES_ONLINE_EXPERIMENT/MALES_CFD-WM-006-022-A_ILL9_C2.png,./IMAGES_ONLINE_EXPERIMENT/MALES_CFD-WM-013-015-A_ILL9_C3.png,./IMAGES_ONLINE_EXPERIMENT/MALES_CFD-WM-001-011-HO_ILL9_C5.png,./IMAGES_ONLINE_EXPERIMENT/MALES_CFD-WM-023-004-HO_ILL9_C1.png,./IMAGES_ONLINE_EXPERIMENT/MALES_CFD-WM-020-005-HC_ILL9_C6.png,./IMAGES_ONLINE_EXPERIMENT/MALES_CFD-WM-029-020-F_ILL9_C4.png,./IMAGES_ONLINE_EXPERIMENT/MALES_CFD-WM-020-012-F_ILL9.png,,
,,,,,272633,001,M,29,2026-03-19_14h48.58.164,RUN_BETA,2026.1.0,MacIntel,59.88023952,506.5569,507.0597,507.06,509.6788,[-0.0005495934190620272],[-0.24963655919062028],[1],[0],[0],[2.618899999991072],0,78,78,102,1,./IMAGES_ONLINE_EXPERIMENT/MALES_CFD-WM-009-006-HC_ILL10_C2.png,./IMAGES_ONLINE_EXPERIMENT/MALES_CFD-WM-039-028-F_ILL10_C4.png,./IMAGES_ONLINE_EXPERIMENT/MALES_CFD-WM-013-001-N_ILL10_C3.png,./IMAGES_ONLINE_EXPERIMENT/MALES_CFD-WM-011-006-HC_ILL10_C1.png,./IMAGES_ONLINE_EXPERIMENT/MALES_CFD-WM-003-006-HC_ILL10_C6.png,./IMAGES_ONLINE_EXPERIMENT/MALES_CFD-WM-017-003-HC_ILL10_C5.png,./IMAGES_ONLINE_EXPERIMENT/MALES_CFD-WM-003-008-A_ILL7.png,,
,,,,,272633,001,M,29,2026-03-19_14h48.58.164,RUN_BETA,2026.1.0,MacIntel,59.88023952,509.679,510.1778,510.1781,512.4816,[0.506988109871407],[-0.285756075075643],[1],[0],[0],[2.3034999999999854],0,79,79,54,1,./IMAGES_ONLINE_EXPERIMENT/MALES_CFD-WM-038-011-A_ILL10_C4.png,./IMAGES_ONLINE_EXPERIMENT/MALES_CFD-WM-031-003-N_ILL10_C6.png,./IMAGES_ONLINE_EXPERIMENT/MALES_CFD-WM-009-014-F_ILL10_C5.png,./IMAGES_ONLINE_EXPERIMENT/MALES_CFD-WM-037-034-HO_ILL10_C3.png,./IMAGES_ONLINE_EXPERIMENT/MALES_CFD-WM-040-025-HC_ILL10_C1.png,./IMAGES_ONLINE_EXPERIMENT/MALES_CFD-WM-020-012-F_ILL10_C2.png,./IMAGES_ONLINE_EXPERIMENT/MALES_CFD-WM-031-004-HO_ILL7.png,,
,,,,,272633,001,M,29,2026-03-19_14h48.58.164,RUN_BETA,2026.1.0,MacIntel,59.88023952,512.4817,512.9791,512.9794,516.7518,[-0.43593690903933435],[-0.280192180408472],[1],[0],[0],[3.772299999997017],0,80,80,59,1,./IMAGES_ONLINE_EXPERIMENT/MALES_CFD-WM-010-004-HO_ILL9_C4.png,./IMAGES_ONLINE_EXPERIMENT/MALES_CFD-WM-033-006-HC_ILL9_C1.png,./IMAGES_ONLINE_EXPERIMENT/MALES_CFD-WM-021-004-HO_ILL9_C2.png,./IMAGES_ONLINE_EXPERIMENT/MALES_CFD-WM-028-005-HC_ILL9_C6.png,./IMAGES_ONLINE_EXPERIMENT/MALES_CFD-WM-022-003-HC_ILL9_C5.png,./IMAGES_ONLINE_EXPERIMENT/MALES_CFD-WM-032-004-HO_ILL9_C3.png,./IMAGES_ONLINE_EXPERIMENT/MALES_CFD-WM-028-003-N_ILL9.png,,
,,,,,272633,001,M,29,2026-03-19_14h48.58.164,RUN_BETA,2026.1.0,MacIntel,59.88023952,516.7521,517.2477,517.248,521.7577,[0.03602200737518911],[0.20057204992435704],[1],[0],[0],[4.509799999996972],0,81,81,31,1,./IMAGES_ONLINE_EXPERIMENT/MALES_CFD-WM-034-035-HO_ILL10_C3.png,./IMAGES_ONLINE_EXPERIMENT/MALES_CFD-WM-016-005-HC_ILL10_C5.png,./IMAGES_ONLINE_EXPERIMENT/MALES_CFD-WM-040-023-HO_ILL10_C1.png,./IMAGES_ONLINE_EXPERIMENT/MALES_CFD-WM-029-009-HC_ILL10_C2.png,./IMAGES_ONLINE_EXPERIMENT/MALES_CFD-WM-004-005-HC_ILL10_C6.png,./IMAGES_ONLINE_EXPERIMENT/MALES_CFD-WM-021-009-A_ILL10_C4.png,./IMAGES_ONLINE_EXPERIMENT/MALES_CFD-WM-004-011-A_ILL9.png,,
,,,,,272633,001,M,29,2026-03-19_14h48.58.164,RUN_BETA,2026.1.0,MacIntel,59.88023952,521.758,522.25,522.2504,527.3141,[-0.4777414665279879],[0.2289795291225416],[1],[0],[0],[5.063900000005901],0,82,82,0,1,./IMAGES_ONLINE_EXPERIMENT/FEMALE_CFD-WF-035-027-HO_ILL10_C2.png,./IMAGES_ONLINE_EXPERIMENT/FEMALE_CFD-WF-039-005-HO_ILL10_C4.png,./IMAGES_ONLINE_EXPERIMENT/FEMALE_CFD-WF-006-003-HC_ILL10_C5.png,./IMAGES_ONLINE_EXPERIMENT/FEMALE_CFD-WF-010-013-F_ILL10_C3.png,./IMAGES_ONLINE_EXPERIMENT/FEMALE_CFD-WF-033-035-F_ILL10_C1.png,./IMAGES_ONLINE_EXPERIMENT/FEMALE_CFD-WF-005-022-A_ILL10_C6.png,./IMAGES_ONLINE_EXPERIMENT/FEMALE_CFD-WF-005-016-HC_ILL7.png,,
,,,,,272633,001,M,29,2026-03-19_14h48.58.164,RUN_BETA,2026.1.0,MacIntel,59.88023952,527.3144,527.8026,527.8029,530.2395,[-0.053954708774583963],[-0.17570147031013617],[1],[0],[0],[2.436700000003043],0,83,83,16,1,./IMAGES_ONLINE_EXPERIMENT/FEMALE_CFD-WF-001-027-F_ILL7_C6.png,./IMAGES_ONLINE_EXPERIMENT/FEMALE_CFD-WF-036-026-HO_ILL7_C2.png,./IMAGES_ONLINE_EXPERIMENT/FEMALE_CFD-WF-013-003-N_ILL7_C5.png,./IMAGES_ONLINE_EXPERIMENT/FEMALE_CFD-WF-019-032-HC_ILL7_C3.png,./IMAGES_ONLINE_EXPERIMENT/FEMALE_CFD-WF-005-016-HC_ILL7_C1.png,./IMAGES_ONLINE_EXPERIMENT/FEMALE_CFD-WF-020-027-F_ILL7_C4.png,./IMAGES_ONLINE_EXPERIMENT/FEMALE_CFD-WF-001-003-N_ILL7.png,,
,,,,,272633,001,M,29,2026-03-19_14h48.58.164,RUN_BETA,2026.1.0,MacIntel,59.88023952,530.2398,530.7373,530.7376,536.7759,[0.022610155068078668],[0.1911964589636914],[1],[0],[0],[6.038399999991043],0,84,84,20,1,./IMAGES_ONLINE_EXPERIMENT/MALES_CFD-WM-040-033-F_ILL10_C3.png,./IMAGES_ONLINE_EXPERIMENT/MALES_CFD-WM-041-021-N_ILL10_C4.png,./IMAGES_ONLINE_EXPERIMENT/MALES_CFD-WM-019-013-A_ILL10_C1.png,./IMAGES_ONLINE_EXPERIMENT/MALES_CFD-WM-014-002-N_ILL10_C6.png,./IMAGES_ONLINE_EXPERIMENT/MALES_CFD-WM-036-037-HC_ILL10_C2.png,./IMAGES_ONLINE_EXPERIMENT/MALES_CFD-WM-009-009-A_ILL10_C5.png,./IMAGES_ONLINE_EXPERIMENT/MALES_CFD-WM-014-013-A_ILL10.png,,
,,,,,272633,001,M,29,2026-03-19_14h48.58.164,RUN_BETA,2026.1.0,MacIntel,59.88023952,536.776,537.2736,537.274,539.5274,[0.0977508037065053],[-0.21485556921331317],[1],[0],[0],[2.253600000008987],0,85,85,103,1,./IMAGES_ONLINE_EXPERIMENT/MALES_CFD-WM-039-018-N_ILL10_C2.png,./IMAGES_ONLINE_EXPERIMENT/MALES_CFD-WM-019-013-A_ILL10_C6.png,./IMAGES_ONLINE_EXPERIMENT/MALES_CFD-WM-020-001-N_ILL10_C5.png,./IMAGES_ONLINE_EXPERIMENT/MALES_CFD-WM-026-019-A_ILL10_C1.png,./IMAGES_ONLINE_EXPERIMENT/MALES_CFD-WM-041-023-HC_ILL10_C4.png,./IMAGES_ONLINE_EXPERIMENT/MALES_CFD-WM-017-002-N_ILL10_C3.png,./IMAGES_ONLINE_EXPERIMENT/MALES_CFD-WM-019-006-HC_ILL9.png,,
,,,,,272633,001,M,29,2026-03-19_14h48.58.164,RUN_BETA,2026.1.0,MacIntel,59.88023952,539.5277,540.0248,540.0252,543.8649,[-0.4410959956505295],[0.1309214258698941],[1],[0],[0],[3.8397999999970125],0,86,86,13,1,./IMAGES_ONLINE_EXPERIMENT/FEMALE_CFD-WF-006-003-HC_ILL10_C2.png,./IMAGES_ONLINE_EXPERIMENT/FEMALE_CFD-WF-008-003-HO_ILL10_C5.png,./IMAGES_ONLINE_EXPERIMENT/FEMALE_CFD-WF-027-021-HO_ILL10_C4.png,./IMAGES_ONLINE_EXPERIMENT/FEMALE_CFD-WF-014-012-A_ILL10_C6.png,./IMAGES_ONLINE_EXPERIMENT/FEMALE_CFD-WF-029-002-N_ILL10_C3.png,./IMAGES_ONLINE_EXPERIMENT/FEMALE_CFD-WF-037-024-F_ILL10_C1.png,./IMAGES_ONLINE_EXPERIMENT/FEMALE_CFD-WF-014-009-HC_ILL9.png,,
,,,,,272633,001,M,29,2026-03-19_14h48.58.164,RUN_BETA,2026.1.0,MacIntel,59.88023952,543.8651,544.3601,544.3605,547.7526,[0.003232554841149773],[0.22081245272314676],[1],[0],[0],[3.392200000003072],0,87,87,83,1,./IMAGES_ONLINE_EXPERIMENT/MALES_CFD-WM-032-004-HO_ILL9_C3.png,./IMAGES_ONLINE_EXPERIMENT/MALES_CFD-WM-028-005-HC_ILL9_C5.png,./IMAGES_ONLINE_EXPERIMENT/MALES_CFD-WM-016-005-HC_ILL9_C4.png,./IMAGES_ONLINE_EXPERIMENT/MALES_CFD-WM-010-004-HO_ILL9_C1.png,./IMAGES_ONLINE_EXPERIMENT/MALES_CFD-WM-019-006-HC_ILL9_C6.png,./IMAGES_ONLINE_EXPERIMENT/MALES_CFD-WM-034-030-N_ILL9_C2.png,./IMAGES_ONLINE_EXPERIMENT/MALES_CFD-WM-019-009-HO_ILL9.png,,
,,,,,272633,001,M,29,2026-03-19_14h48.58.164,RUN_BETA,2026.1.0,MacIntel,59.88023952,547.7528,548.2453,548.2456,552.1528,[-0.02217284417549168],[0.17964317795007564],[1],[0],[0],[3.9072000000029448],0,88,88,60,1,./IMAGES_ONLINE_EXPERIMENT/FEMALE_CFD-WF-015-027-F_ILL10_C4.png,./IMAGES_ONLINE_EXPERIMENT/FEMALE_CFD-WF-031-005-HO_ILL10_C6.png,./IMAGES_ONLINE_EXPERIMENT/FEMALE_CFD-WF-027-014-A_ILL10_C1.png,./IMAGES_ONLINE_EXPERIMENT/FEMALE_CFD-WF-014-009-HC_ILL10_C5.png,./IMAGES_ONLINE_EXPERIMENT/FEMALE_CFD-WF-006-006-HO_ILL10_C2.png,./IMAGES_ONLINE_EXPERIMENT/FEMALE_CFD-WF-019-032-HC_ILL10_C3.png,./IMAGES_ONLINE_EXPERIMENT/FEMALE_CFD-WF-031-009-HC_ILL7.png,,
,,,,,272633,001,M,29,2026-03-19_14h48.58.164,RUN_BETA,2026.1.0,MacIntel,59.88023952,552.153,552.6473,552.6477,556.6325,[0.03830902515128593],[0.1299020187216339],[1],[0],[0],[3.9850000000000136],0,89,89,85,1,./IMAGES_ONLINE_EXPERIMENT/FEMALE_CFD-WF-007-001-N_ILL10_C2.png,./IMAGES_ONLINE_EXPERIMENT/FEMALE_CFD-WF-025-031-F_ILL10_C6.png,./IMAGES_ONLINE_EXPERIMENT/FEMALE_CFD-WF-014-004-HO_ILL10_C3.png,./IMAGES_ONLINE_EXPERIMENT/FEMALE_CFD-WF-019-032-HC_ILL10_C1.png,./IMAGES_ONLINE_EXPERIMENT/FEMALE_CFD-WF-013-015-A_ILL10_C5.png,./IMAGES_ONLINE_EXPERIMENT/FEMALE_CFD-WF-002-008-HC_ILL10_C4.png,./IMAGES_ONLINE_EXPERIMENT/FEMALE_CFD-WF-025-023-HC_ILL9.png,,
,,,,,272633,001,M,29,2026-03-19_14h48.58.164,RUN_BETA,2026.1.0,MacIntel,59.88023952,556.6328,557.1327,557.133,558.8678,[-0.058253947617246594],[0.21017220593797276],[1],[0],[0],[1.7348999999910575],0,90,90,8,1,./IMAGES_ONLINE_EXPERIMENT/MALES_CFD-WM-031-045-A_ILL10_C5.png,./IMAGES_ONLINE_EXPERIMENT/MALES_CFD-WM-014-004-HO_ILL10_C1.png,./IMAGES_ONLINE_EXPERIMENT/MALES_CFD-WM-039-018-N_ILL10_C2.png,./IMAGES_ONLINE_EXPERIMENT/MALES_CFD-WM-028-019-F_ILL10_C6.png,./IMAGES_ONLINE_EXPERIMENT/MALES_CFD-WM-041-021-N_ILL10_C4.png,./IMAGES_ONLINE_EXPERIMENT/MALES_CFD-WM-023-004-HO_ILL10_C3.png,./IMAGES_ONLINE_EXPERIMENT/MALES_CFD-WM-028-005-HC_ILL10.png,,
,,,,,272633,001,M,29,2026-03-19_14h48.58.164,RUN_BETA,2026.1.0,MacIntel,59.88023952,558.8681,559.3671,559.3674,562.6874,[0.525228110816944],[-0.23498959909228442],[1],[0],[0],[3.3201000000088925],0,91,91,101,1,./IMAGES_ONLINE_EXPERIMENT/FEMALE_CFD-WF-014-012-A_ILL9_C1.png,./IMAGES_ONLINE_EXPERIMENT/FEMALE_CFD-WF-029-018-F_ILL9_C5.png,./IMAGES_ONLINE_EXPERIMENT/FEMALE_CFD-WF-019-032-HC_ILL9_C3.png,./IMAGES_ONLINE_EXPERIMENT/FEMALE_CFD-WF-039-005-HO_ILL9_C6.png,./IMAGES_ONLINE_EXPERIMENT/FEMALE_CFD-WF-012-004-HC_ILL9_C4.png,./IMAGES_ONLINE_EXPERIMENT/FEMALE_CFD-WF-001-003-N_ILL9_C2.png,./IMAGES_ONLINE_EXPERIMENT/FEMALE_CFD-WF-039-032-A_ILL9.png,,
,,,,,272633,001,M,29,2026-03-19_14h48.58.164,RUN_BETA,2026.1.0,MacIntel,59.88023952,562.6876,563.1855,563.1858,565.087,[-0.5674374763615734],[0.20697510873676248],[1],[0],[0],[1.9012999999970361],0,92,92,33,1,./IMAGES_ONLINE_EXPERIMENT/MALES_CFD-WM-002-007-HO_ILL10_C6.png,./IMAGES_ONLINE_EXPERIMENT/MALES_CFD-WM-026-019-A_ILL10_C4.png,./IMAGES_ONLINE_EXPERIMENT/MALES_CFD-WM-020-005-HC_ILL10_C1.png,./IMAGES_ONLINE_EXPERIMENT/MALES_CFD-WM-039-018-N_ILL10_C2.png,./IMAGES_ONLINE_EXPERIMENT/MALES_CFD-WM-009-014-F_ILL10_C5.png,./IMAGES_ONLINE_EXPERIMENT/MALES_CFD-WM-019-013-A_ILL10_C3.png,./IMAGES_ONLINE_EXPERIMENT/MALES_CFD-WM-002-009-N_ILL10.png,,
,,,,,272633,001,M,29,2026-03-19_14h48.58.164,RUN_BETA,2026.1.0,MacIntel,59.88023952,565.0872,565.5866,565.5868,568.4213,[0.4707444922465961],[-0.26691624905446293],[1],[0],[0],[2.8344999999999345],0,93,93,77,1,./IMAGES_ONLINE_EXPERIMENT/FEMALE_CFD-WF-023-003-N_ILL9_C4.png,./IMAGES_ONLINE_EXPERIMENT/FEMALE_CFD-WF-031-027-N_ILL9_C6.png,./IMAGES_ONLINE_EXPERIMENT/FEMALE_CFD-WF-036-030-HC_ILL9_C2.png,./IMAGES_ONLINE_EXPERIMENT/FEMALE_CFD-WF-007-001-N_ILL9_C1.png,./IMAGES_ONLINE_EXPERIMENT/FEMALE_CFD-WF-006-011-F_ILL9_C5.png,./IMAGES_ONLINE_EXPERIMENT/FEMALE_CFD-WF-018-018-HO_ILL9_C3.png,./IMAGES_ONLINE_EXPERIMENT/FEMALE_CFD-WF-031-009-HC_ILL9.png,,
,,,,,272633,001,M,29,2026-03-19_14h48.58.164,RUN_BETA,2026.1.0,MacIntel,59.88023952,568.4215,568.9215,568.9218,574.5924,[0.02136618286686838],[0.19976834341906202],[1],[0],[0],[5.67070000000308],0,94,94,90,1,./IMAGES_ONLINE_EXPERIMENT/MALES_CFD-WM-012-005-HO_ILL10_C3.png,./IMAGES_ONLINE_EXPERIMENT/MALES_CFD-WM-011-011-A_ILL10_C5.png,./IMAGES_ONLINE_EXPERIMENT/MALES_CFD-WM-039-010-A_ILL10_C1.png,./IMAGES_ONLINE_EXPERIMENT/MALES_CFD-WM-020-003-HO_ILL10_C4.png,./IMAGES_ONLINE_EXPERIMENT/MALES_CFD-WM-019-009-HO_ILL10_C2.png,./IMAGES_ONLINE_EXPERIMENT/MALES_CFD-WM-004-005-HC_ILL10_C6.png,./IMAGES_ONLINE_EXPERIMENT/MALES_CFD-WM-004-011-A_ILL7.png,,
,,,,,272633,001,M,29,2026-03-19_14h48.58.164,RUN_BETA,2026.1.0,MacIntel,59.88023952,574.5926,575.091,575.0913,576.6069,[0.012085145612708018],[0.19821411686838125],[1],[0],[0],[1.515799999997057],0,95,95,69,1,./IMAGES_ONLINE_EXPERIMENT/MALES_CFD-WM-036-018-A_ILL10_C5.png,./IMAGES_ONLINE_EXPERIMENT/MALES_CFD-WM-032-001-N_ILL10_C6.png,./IMAGES_ONLINE_EXPERIMENT/MALES_CFD-WM-010-004-HO_ILL10_C2.png,./IMAGES_ONLINE_EXPERIMENT/MALES_CFD-WM-023-015-F_ILL10_C3.png,./IMAGES_ONLINE_EXPERIMENT/MALES_CFD-WM-034-030-N_ILL10_C1.png,./IMAGES_ONLINE_EXPERIMENT/MALES_CFD-WM-014-002-N_ILL10_C4.png,./IMAGES_ONLINE_EXPERIMENT/MALES_CFD-WM-032-021-F_ILL10.png,,
,,,,,272633,001,M,29,2026-03-19_14h48.58.164,RUN_BETA,2026.1.0,MacIntel,59.88023952,576.6071,577.1086,577.1088,580.2996,[0.04751619232223903],[0.20943350510590014],[1],[0],[0],[3.1909000000059677],0,96,96,51,1,./IMAGES_ONLINE_EXPERIMENT/FEMALE_CFD-WF-022-007-HC_ILL10_C2.png,./IMAGES_ONLINE_EXPERIMENT/FEMALE_CFD-WF-030-003-HO_ILL10_C6.png,./IMAGES_ONLINE_EXPERIMENT/FEMALE_CFD-WF-024-003-N_ILL10_C1.png,./IMAGES_ONLINE_EXPERIMENT/FEMALE_CFD-WF-011-011-A_ILL10_C5.png,./IMAGES_ONLINE_EXPERIMENT/FEMALE_CFD-WF-039-008-HC_ILL10_C4.png,./IMAGES_ONLINE_EXPERIMENT/FEMALE_CFD-WF-031-005-HO_ILL10_C3.png,./IMAGES_ONLINE_EXPERIMENT/FEMALE_CFD-WF-030-002-N_ILL10.png,,
,,,,,272633,001,M,29,2026-03-19_14h48.58.164,RUN_BETA,2026.1.0,MacIntel,59.88023952,580.2998,580.7937,580.7939,583.3801,[0.4968383604387292],[0.2656220451966717],[1],[0],[0],[2.5863000000118745],0,97,97,117,1,./IMAGES_ONLINE_EXPERIMENT/MALES_CFD-WM-013-006-HO_ILL10_C5.png,./IMAGES_ONLINE_EXPERIMENT/MALES_CFD-WM-022-012-F_ILL10_C6.png,./IMAGES_ONLINE_EXPERIMENT/MALES_CFD-WM-031-004-HO_ILL10_C3.png,./IMAGES_ONLINE_EXPERIMENT/MALES_CFD-WM-012-026-F_ILL10_C1.png,./IMAGES_ONLINE_EXPERIMENT/MALES_CFD-WM-036-031-N_ILL10_C2.png,./IMAGES_ONLINE_EXPERIMENT/MALES_CFD-WM-018-007-A_ILL10_C4.png,./IMAGES_ONLINE_EXPERIMENT/MALES_CFD-WM-022-005-HO_ILL10.png,,
,,,,,272633,001,M,29,2026-03-19_14h48.58.164,RUN_BETA,2026.1.0,MacIntel,59.88023952,583.3803,583.8783,583.8786,585.6158,[-0.5169517066944024],[0.11211114788199697],[1],[0],[0],[1.737399999991112],0,98,98,73,1,./IMAGES_ONLINE_EXPERIMENT/FEMALE_CFD-WF-038-027-HC_ILL10_C6.png,./IMAGES_ONLINE_EXPERIMENT/FEMALE_CFD-WF-011-016-F_ILL10_C5.png,./IMAGES_ONLINE_EXPERIMENT/FEMALE_CFD-WF-027-021-HO_ILL10_C3.png,./IMAGES_ONLINE_EXPERIMENT/FEMALE_CFD-WF-019-032-HC_ILL10_C1.png,./IMAGES_ONLINE_EXPERIMENT/FEMALE_CFD-WF-011-002-N_ILL10_C4.png,./IMAGES_ONLINE_EXPERIMENT/FEMALE_CFD-WF-035-033-A_ILL10_C2.png,./IMAGES_ONLINE_EXPERIMENT/FEMALE_CFD-WF-038-030-A_ILL9.png,,
,,,,,272633,001,M,29,2026-03-19_14h48.58.164,RUN_BETA,2026.1.0,MacIntel,59.88023952,585.6161,586.1127,586.113,589.3652,[0.010028602496217853],[-0.2567871832450832],[1],[0],[0],[3.252200000002972],0,99,99,44,1,./IMAGES_ONLINE_EXPERIMENT/MALES_CFD-WM-029-020-F_ILL10_C1.png,./IMAGES_ONLINE_EXPERIMENT/MALES_CFD-WM-033-006-HC_ILL10_C4.png,./IMAGES_ONLINE_EXPERIMENT/MALES_CFD-WM-039-018-N_ILL10_C3.png,./IMAGES_ONLINE_EXPERIMENT/MALES_CFD-WM-028-003-N_ILL10_C2.png,./IMAGES_ONLINE_EXPERIMENT/MALES_CFD-WM-040-025-HC_ILL10_C6.png,./IMAGES_ONLINE_EXPERIMENT/MALES_CFD-WM-026-004-HC_ILL10_C5.png,./IMAGES_ONLINE_EXPERIMENT/MALES_CFD-WM-040-023-HO_ILL10.png,,
,,,,,272633,001,M,29,2026-03-19_14h48.58.164,RUN_BETA,2026.1.0,MacIntel,59.88023952,589.3654,589.8644,589.8648,595.0258,[-0.00485474186838124],[-0.23991525624054463],[1],[0],[0],[5.1609999999999445],0,100,100,114,1,./IMAGES_ONLINE_EXPERIMENT/MALES_CFD-WM-038-007-HC_ILL10_C3.png,./IMAGES_ONLINE_EXPERIMENT/MALES_CFD-WM-016-001-N_ILL10_C5.png,./IMAGES_ONLINE_EXPERIMENT/MALES_CFD-WM-011-002-N_ILL10_C2.png,./IMAGES_ONLINE_EXPERIMENT/MALES_CFD-WM-023-004-HO_ILL10_C1.png,./IMAGES_ONLINE_EXPERIMENT/MALES_CFD-WM-013-001-N_ILL10_C4.png,./IMAGES_ONLINE_EXPERIMENT/MALES_CFD-WM-015-005-HO_ILL10_C6.png,./IMAGES_ONLINE_EXPERIMENT/MALES_CFD-WM-015-002-N_ILL7.png,,
,,,,,272633,001,M,29,2026-03-19_14h48.58.164,RUN_BETA,2026.1.0,MacIntel,59.88023952,595.026,595.517,595.5173,597.2861,[-0.01222697617246596],[0.27597567605900153],[1],[0],[0],[1.7689000000059423],0,101,101,97,1,./IMAGES_ONLINE_EXPERIMENT/FEMALE_CFD-WF-029-026-A_ILL10_C1.png,./IMAGES_ONLINE_EXPERIMENT/FEMALE_CFD-WF-030-002-N_ILL10_C5.png,./IMAGES_ONLINE_EXPERIMENT/FEMALE_CFD-WF-035-019-F_ILL10_C2.png,./IMAGES_ONLINE_EXPERIMENT/FEMALE_CFD-WF-014-009-HC_ILL10_C4.png,./IMAGES_ONLINE_EXPERIMENT/FEMALE_CFD-WF-012-017-F_ILL10_C6.png,./IMAGES_ONLINE_EXPERIMENT/FEMALE_CFD-WF-037-016-A_ILL10_C3.png,./IMAGES_ONLINE_EXPERIMENT/FEMALE_CFD-WF-012-004-HC_ILL9.png,,
,,,,,272633,001,M,29,2026-03-19_14h48.58.164,RUN_BETA,2026.1.0,MacIntel,59.88023952,597.2864,597.7847,597.7851,601.495,[0.04821943551437216],[-0.19842981751134645],[1],[0],[0],[3.710099999993986],0,102,102,78,1,./IMAGES_ONLINE_EXPERIMENT/MALES_CFD-WM-024-019-F_ILL10_C1.png,./IMAGES_ONLINE_EXPERIMENT/MALES_CFD-WM-028-005-HC_ILL10_C4.png,./IMAGES_ONLINE_EXPERIMENT/MALES_CFD-WM-039-018-N_ILL10_C5.png,./IMAGES_ONLINE_EXPERIMENT/MALES_CFD-WM-025-022-F_ILL10_C6.png,./IMAGES_ONLINE_EXPERIMENT/MALES_CFD-WM-003-003-HO_ILL10_C3.png,./IMAGES_ONLINE_EXPERIMENT/MALES_CFD-WM-001-011-HO_ILL10_C2.png,./IMAGES_ONLINE_EXPERIMENT/MALES_CFD-WM-025-008-A_ILL7.png,,
,,,,,272633,001,M,29,2026-03-19_14h48.58.164,RUN_BETA,2026.1.0,MacIntel,59.88023952,601.4952,601.9867,601.987,604.6907,[0.014596728441754917],[0.18737294345688352],[1],[0],[0],[2.7037999999969315],0,103,103,100,1,./IMAGES_ONLINE_EXPERIMENT/FEMALE_CFD-WF-022-007-HC_ILL7_C5.png,./IMAGES_ONLINE_EXPERIMENT/FEMALE_CFD-WF-020-027-F_ILL7_C2.png,./IMAGES_ONLINE_EXPERIMENT/FEMALE_CFD-WF-033-031-A_ILL7_C1.png,./IMAGES_ONLINE_EXPERIMENT/FEMALE_CFD-WF-017-016-HC_ILL7_C4.png,./IMAGES_ONLINE_EXPERIMENT/FEMALE_CFD-WF-019-035-HO_ILL7_C6.png,./IMAGES_ONLINE_EXPERIMENT/FEMALE_CFD-WF-025-031-F_ILL7_C3.png,./IMAGES_ONLINE_EXPERIMENT/FEMALE_CFD-WF-019-024-F_ILL7.png,,
,,,,,272633,001,M,29,2026-03-19_14h48.58.164,RUN_BETA,2026.1.0,MacIntel,59.88023952,604.6909,605.1882,605.1885,608.5251,[-0.5031202723146747],[0.19169582072617247],[1],[0],[0],[3.336500000000001],0,104,104,37,1,./IMAGES_ONLINE_EXPERIMENT/FEMALE_CFD-WF-016-024-F_ILL10_C3.png,./IMAGES_ONLINE_EXPERIMENT/FEMALE_CFD-WF-037-016-A_ILL10_C1.png,./IMAGES_ONLINE_EXPERIMENT/FEMALE_CFD-WF-034-061-HC_ILL10_C4.png,./IMAGES_ONLINE_EXPERIMENT/FEMALE_CFD-WF-017-016-HC_ILL10_C5.png,./IMAGES_ONLINE_EXPERIMENT/FEMALE_CFD-WF-029-018-F_ILL10_C2.png,./IMAGES_ONLINE_EXPERIMENT/FEMALE_CFD-WF-026-008-A_ILL10_C6.png,./IMAGES_ONLINE_EXPERIMENT/FEMALE_CFD-WF-026-018-HC_ILL9.png,,
,,,,,272633,001,M,29,2026-03-19_14h48.58.164,RUN_BETA,2026.1.0,MacIntel,59.88023952,608.5253,609.0232,609.0236,612.957,[0.6081812594553706],[0.262868168494705],[1],[0],[0],[3.933599999994044],0,105,105,92,1,./IMAGES_ONLINE_EXPERIMENT/MALES_CFD-WM-010-004-HO_ILL10_C5.png,./IMAGES_ONLINE_EXPERIMENT/MALES_CFD-WM-036-034-HO_ILL10_C3.png,./IMAGES_ONLINE_EXPERIMENT/MALES_CFD-WM-038-011-A_ILL10_C6.png,./IMAGES_ONLINE_EXPERIMENT/MALES_CFD-WM-023-007-HC_ILL10_C4.png,./IMAGES_ONLINE_EXPERIMENT/MALES_CFD-WM-023-015-F_ILL10_C2.png,./IMAGES_ONLINE_EXPERIMENT/MALES_CFD-WM-002-008-HC_ILL10_C1.png,./IMAGES_ONLINE_EXPERIMENT/MALES_CFD-WM-038-007-HC_ILL10.png,,
,,,,,272633,001,M,29,2026-03-19_14h48.58.164,RUN_BETA,2026.1.0,MacIntel,59.88023952,612.9572,613.4586,613.459,617.2793,[0.06387398354765507],[0.17849375945537066],[1],[0],[0],[3.820400000005975],0,106,106,98,1,./IMAGES_ONLINE_EXPERIMENT/FEMALE_CFD-WF-013-006-HO_ILL10_C3.png,./IMAGES_ONLINE_EXPERIMENT/FEMALE_CFD-WF-018-017-N_ILL10_C1.png,./IMAGES_ONLINE_EXPERIMENT/FEMALE_CFD-WF-001-009-HO_ILL10_C6.png,./IMAGES_ONLINE_EXPERIMENT/FEMALE_CFD-WF-019-005-N_ILL10_C4.png,./IMAGES_ONLINE_EXPERIMENT/FEMALE_CFD-WF-033-002-N_ILL10_C2.png,./IMAGES_ONLINE_EXPERIMENT/FEMALE_CFD-WF-039-008-HC_ILL10_C5.png,./IMAGES_ONLINE_EXPERIMENT/FEMALE_CFD-WF-001-027-F_ILL10.png,,
,,,,,272633,001,M,29,2026-03-19_14h48.58.164,RUN_BETA,2026.1.0,MacIntel,59.88023952,617.2795,617.7772,617.7776,620.4475,[-0.03641204141452345],[0.19197948184568836],[1],[0],[0],[2.669999999999959],0,107,107,108,1,./IMAGES_ONLINE_EXPERIMENT/FEMALE_CFD-WF-010-008-HC_ILL10_C5.png,./IMAGES_ONLINE_EXPERIMENT/FEMALE_CFD-WF-019-015-A_ILL10_C2.png,./IMAGES_ONLINE_EXPERIMENT/FEMALE_CFD-WF-008-016-F_ILL10_C1.png,./IMAGES_ONLINE_EXPERIMENT/FEMALE_CFD-WF-034-016-A_ILL10_C4.png,./IMAGES_ONLINE_EXPERIMENT/FEMALE_CFD-WF-001-027-F_ILL10_C3.png,./IMAGES_ONLINE_EXPERIMENT/FEMALE_CFD-WF-025-019-N_ILL10_C6.png,./IMAGES_ONLINE_EXPERIMENT/FEMALE_CFD-WF-025-015-A_ILL7.png,,
,,,,,272633,001,M,29,2026-03-19_14h48.58.164,RUN_BETA,2026.1.0,MacIntel,59.88023952,620.4477,620.9454,620.9458,624.1114,[0.04220345593797277],[-0.18530162632375188],[1],[0],[0],[3.165699999988078],0,108,108,113,1,./IMAGES_ONLINE_EXPERIMENT/FEMALE_CFD-WF-010-014-A_ILL9_C1.png,./IMAGES_ONLINE_EXPERIMENT/FEMALE_CFD-WF-014-002-N_ILL9_C5.png,./IMAGES_ONLINE_EXPERIMENT/FEMALE_CFD-WF-025-031-F_ILL9_C4.png,./IMAGES_ONLINE_EXPERIMENT/FEMALE_CFD-WF-033-041-HC_ILL9_C2.png,./IMAGES_ONLINE_EXPERIMENT/FEMALE_CFD-WF-036-026-HO_ILL9_C6.png,./IMAGES_ONLINE_EXPERIMENT/FEMALE_CFD-WF-022-017-N_ILL9_C3.png,./IMAGES_ONLINE_EXPERIMENT/FEMALE_CFD-WF-036-030-HC_ILL9.png,,
,,,,,272633,001,M,29,2026-03-19_14h48.58.164,RUN_BETA,2026.1.0,MacIntel,59.88023952,624.1115,624.6138,624.6141,627.6637,[0.5019294865733737],[0.2151865071860817],[1],[0],[0],[3.049799999997049],0,109,109,50,1,./IMAGES_ONLINE_EXPERIMENT/FEMALE_CFD-WF-033-031-A_ILL10_C1.png,./IMAGES_ONLINE_EXPERIMENT/FEMALE_CFD-WF-029-023-HC_ILL10_C4.png,./IMAGES_ONLINE_EXPERIMENT/FEMALE_CFD-WF-003-004-HO_ILL10_C6.png,./IMAGES_ONLINE_EXPERIMENT/FEMALE_CFD-WF-006-011-F_ILL10_C3.png,./IMAGES_ONLINE_EXPERIMENT/FEMALE_CFD-WF-022-017-N_ILL10_C5.png,./IMAGES_ONLINE_EXPERIMENT/FEMALE_CFD-WF-029-002-N_ILL10_C2.png,./IMAGES_ONLINE_EXPERIMENT/FEMALE_CFD-WF-003-007-HC_ILL10.png,,
,,,,,272633,001,M,29,2026-03-19_14h48.58.164,RUN_BETA,2026.1.0,MacIntel,59.88023952,627.664,628.1654,628.1657,630.4692,[-0.5428476030635401],[0.1522816991301059],[1],[0],[0],[2.3035999999940486],0,110,110,41,1,./IMAGES_ONLINE_EXPERIMENT/FEMALE_CFD-WF-003-007-HC_ILL9_C1.png,./IMAGES_ONLINE_EXPERIMENT/FEMALE_CFD-WF-013-015-A_ILL9_C5.png,./IMAGES_ONLINE_EXPERIMENT/FEMALE_CFD-WF-027-021-HO_ILL9_C2.png,./IMAGES_ONLINE_EXPERIMENT/FEMALE_CFD-WF-027-003-N_ILL9_C3.png,./IMAGES_ONLINE_EXPERIMENT/FEMALE_CFD-WF-021-013-F_ILL9_C6.png,./IMAGES_ONLINE_EXPERIMENT/FEMALE_CFD-WF-038-033-F_ILL9_C4.png,./IMAGES_ONLINE_EXPERIMENT/FEMALE_CFD-WF-021-006-HC_ILL9.png,,
,,,,,272633,001,M,29,2026-03-19_14h48.58.164,RUN_BETA,2026.1.0,MacIntel,59.88023952,630.4694,630.9658,630.9662,634.5465,[0.5575743428517398],[0.2255342284417549],[1],[0],[0],[3.580500000000029],0,111,111,75,1,./IMAGES_ONLINE_EXPERIMENT/FEMALE_CFD-WF-014-023-F_ILL10_C2.png,./IMAGES_ONLINE_EXPERIMENT/FEMALE_CFD-WF-028-023-N_ILL10_C6.png,./IMAGES_ONLINE_EXPERIMENT/FEMALE_CFD-WF-018-013-F_ILL10_C3.png,./IMAGES_ONLINE_EXPERIMENT/FEMALE_CFD-WF-010-008-HC_ILL10_C1.png,./IMAGES_ONLINE_EXPERIMENT/FEMALE_CFD-WF-009-006-HC_ILL10_C5.png,./IMAGES_ONLINE_EXPERIMENT/FEMALE_CFD-WF-021-018-A_ILL10_C4.png,./IMAGES_ONLINE_EXPERIMENT/FEMALE_CFD-WF-028-026-A_ILL10.png,,
,,,,,272633,001,M,29,2026-03-19_14h48.58.164,RUN_BETA,2026.1.0,MacIntel,59.88023952,634.5468,635.0352,635.0356,638.9502,[-0.599334578290469],[-0.29499279027987896],[1],[0],[0],[3.914700000002995],0,112,112,88,1,./IMAGES_ONLINE_EXPERIMENT/FEMALE_CFD-WF-027-021-HO_ILL7_C4.png,./IMAGES_ONLINE_EXPERIMENT/FEMALE_CFD-WF-039-005-HO_ILL7_C5.png,./IMAGES_ONLINE_EXPERIMENT/FEMALE_CFD-WF-023-020-HO_ILL7_C3.png,./IMAGES_ONLINE_EXPERIMENT/FEMALE_CFD-WF-005-013-HO_ILL7_C2.png,./IMAGES_ONLINE_EXPERIMENT/FEMALE_CFD-WF-016-021-A_ILL7_C1.png,./IMAGES_ONLINE_EXPERIMENT/FEMALE_CFD-WF-009-004-HO_ILL7_C6.png,./IMAGES_ONLINE_EXPERIMENT/FEMALE_CFD-WF-009-006-HC_ILL7.png,,
,,,,,272633,001,M,29,2026-03-19_14h48.58.164,RUN_BETA,2026.1.0,MacIntel,59.88023952,638.9504,639.4539,639.4543,642.0435,[0.5367193409606656],[0.25429628403933435],[1],[0],[0],[2.5893999999910875],0,113,113,71,1,./IMAGES_ONLINE_EXPERIMENT/MALES_CFD-WM-037-025-N_ILL9_C5.png,./IMAGES_ONLINE_EXPERIMENT/MALES_CFD-WM-026-004-HC_ILL9_C1.png,./IMAGES_ONLINE_EXPERIMENT/MALES_CFD-WM-033-053-F_ILL9_C4.png,./IMAGES_ONLINE_EXPERIMENT/MALES_CFD-WM-006-039-F_ILL9_C6.png,./IMAGES_ONLINE_EXPERIMENT/MALES_CFD-WM-021-009-A_ILL9_C2.png,./IMAGES_ONLINE_EXPERIMENT/MALES_CFD-WM-031-045-A_ILL9_C3.png,./IMAGES_ONLINE_EXPERIMENT/MALES_CFD-WM-006-022-A_ILL9.png,,
,,,,,272633,001,M,29,2026-03-19_14h48.58.164,RUN_BETA,2026.1.0,MacIntel,59.88023952,642.0438,642.5387,642.539,646.3909,[0.008831907148260211],[0.2868375330937973],[1],[0],[0],[3.851899999991133],0,114,114,43,1,./IMAGES_ONLINE_EXPERIMENT/MALES_CFD-WM-038-007-HC_ILL10_C5.png,./IMAGES_ONLINE_EXPERIMENT/MALES_CFD-WM-039-010-A_ILL10_C3.png,./IMAGES_ONLINE_EXPERIMENT/MALES_CFD-WM-031-045-A_ILL10_C1.png,./IMAGES_ONLINE_EXPERIMENT/MALES_CFD-WM-023-007-HC_ILL10_C6.png,./IMAGES_ONLINE_EXPERIMENT/MALES_CFD-WM-004-010-N_ILL10_C4.png,./IMAGES_ONLINE_EXPERIMENT/MALES_CFD-WM-003-008-A_ILL10_C2.png,./IMAGES_ONLINE_EXPERIMENT/MALES_CFD-WM-023-012-A_ILL9.png,,
,,,,,272633,001,M,29,2026-03-19_14h48.58.164,RUN_BETA,2026.1.0,MacIntel,59.88023952,646.3911,646.8906,646.8909,649.3805,[0.5868712178517398],[0.1932027704236006],[1],[0],[0],[2.4896000000088634],0,115,115,30,1,./IMAGES_ONLINE_EXPERIMENT/MALES_CFD-WM-034-032-HC_ILL10_C1.png,./IMAGES_ONLINE_EXPERIMENT/MALES_CFD-WM-002-009-N_ILL10_C2.png,./IMAGES_ONLINE_EXPERIMENT/MALES_CFD-WM-025-022-F_ILL10_C4.png,./IMAGES_ONLINE_EXPERIMENT/MALES_CFD-WM-035-032-N_ILL10_C6.png,./IMAGES_ONLINE_EXPERIMENT/MALES_CFD-WM-014-008-HC_ILL10_C3.png,./IMAGES_ONLINE_EXPERIMENT/MALES_CFD-WM-014-002-N_ILL10_C5.png,./IMAGES_ONLINE_EXPERIMENT/MALES_CFD-WM-035-033-HO_ILL7.png,,
,,,,,272633,001,M,29,2026-03-19_14h48.58.164,RUN_BETA,2026.1.0,MacIntel,59.88023952,649.3807,649.8755,649.8757,651.4293,[-0.015415208963691376],[0.20248676248108927],[1],[0],[0],[1.5536999999881118],0,116,116,116,1,./IMAGES_ONLINE_EXPERIMENT/MALES_CFD-WM-013-001-N_ILL10_C2.png,./IMAGES_ONLINE_EXPERIMENT/MALES_CFD-WM-038-011-A_ILL10_C6.png,./IMAGES_ONLINE_EXPERIMENT/MALES_CFD-WM-003-006-HC_ILL10_C5.png,./IMAGES_ONLINE_EXPERIMENT/MALES_CFD-WM-036-031-N_ILL10_C4.png,./IMAGES_ONLINE_EXPERIMENT/MALES_CFD-WM-006-010-HO_ILL10_C1.png,./IMAGES_ONLINE_EXPERIMENT/MALES_CFD-WM-022-012-F_ILL10_C3.png,./IMAGES_ONLINE_EXPERIMENT/MALES_CFD-WM-038-007-HC_ILL10.png,,
,,,,,272633,001,M,29,2026-03-19_14h48.58.164,RUN_BETA,2026.1.0,MacIntel,59.88023952,651.4295,651.9263,651.9266,653.3781,[-0.00894418967473525],[0.1477578952344932],[1],[0],[0],[1.45150000000001],0,117,117,107,1,./IMAGES_ONLINE_EXPERIMENT/MALES_CFD-WM-033-025-N_ILL9_C1.png,./IMAGES_ONLINE_EXPERIMENT/MALES_CFD-WM-003-008-A_ILL9_C6.png,./IMAGES_ONLINE_EXPERIMENT/MALES_CFD-WM-024-010-A_ILL9_C5.png,./IMAGES_ONLINE_EXPERIMENT/MALES_CFD-WM-029-020-F_ILL9_C3.png,./IMAGES_ONLINE_EXPERIMENT/MALES_CFD-WM-006-039-F_ILL9_C4.png,./IMAGES_ONLINE_EXPERIMENT/MALES_CFD-WM-016-008-A_ILL9_C2.png,./IMAGES_ONLINE_EXPERIMENT/MALES_CFD-WM-003-006-HC_ILL9.png,,
,,,,,272633,001,M,29,2026-03-19_14h48.58.164,RUN_BETA,2026.1.0,MacIntel,59.88023952,653.3782,653.8772,653.8775,655.2821,[0.05532869232223903],[0.1599050917170953],[1],[0],[0],[1.4047000000030039],0,118,118,48,1,./IMAGES_ONLINE_EXPERIMENT/FEMALE_CFD-WF-026-002-N_ILL10_C5.png,./IMAGES_ONLINE_EXPERIMENT/FEMALE_CFD-WF-027-014-A_ILL10_C1.png,./IMAGES_ONLINE_EXPERIMENT/FEMALE_CFD-WF-003-007-HC_ILL10_C2.png,./IMAGES_ONLINE_EXPERIMENT/FEMALE_CFD-WF-008-005-HC_ILL10_C3.png,./IMAGES_ONLINE_EXPERIMENT/FEMALE_CFD-WF-036-026-HO_ILL10_C4.png,./IMAGES_ONLINE_EXPERIMENT/FEMALE_CFD-WF-037-016-A_ILL10_C6.png,./IMAGES_ONLINE_EXPERIMENT/FEMALE_CFD-WF-037-034-HC_ILL7.png,,
,,,,,272633,001,M,29,2026-03-19_14h48.58.164,RUN_BETA,2026.1.0,MacIntel,59.88023952,655.2824,655.7781,655.7784,657.562,[-0.4296490875567322],[0.1824797891452345],[1],[0],[0],[1.7837999999969725],0,119,119,94,1,./IMAGES_ONLINE_EXPERIMENT/MALES_CFD-WM-033-006-HC_ILL7_C5.png,./IMAGES_ONLINE_EXPERIMENT/MALES_CFD-WM-029-009-HC_ILL7_C3.png,./IMAGES_ONLINE_EXPERIMENT/MALES_CFD-WM-039-018-N_ILL7_C4.png,./IMAGES_ONLINE_EXPERIMENT/MALES_CFD-WM-033-025-N_ILL7_C2.png,./IMAGES_ONLINE_EXPERIMENT/MALES_CFD-WM-009-014-F_ILL7_C6.png,./IMAGES_ONLINE_EXPERIMENT/MALES_CFD-WM-026-001-N_ILL7_C1.png,./IMAGES_ONLINE_EXPERIMENT/MALES_CFD-WM-009-004-HO_ILL7.png,,
